.thisTrialN,.stepSize,.intensity,.response,key_resp_2.rt,Face,participant,date,expName,psychopyVersion,frameRate,
0,4,0.5,1,0,Schematic,ideal,2019_Mar_17_1117,Face-Threshold,3.0.4,60.31614538616575,
1,4,0.4983225699347126,1,0,Schematic,ideal,2019_Mar_17_1117,Face-Threshold,3.0.4,60.31614538616575,
2,4,0.44550633527271866,1,0,Schematic,ideal,2019_Mar_17_1117,Face-Threshold,3.0.4,60.31614538616575,
3,4,0.39445686119571033,1,0,Schematic,ideal,2019_Mar_17_1117,Face-Threshold,3.0.4,60.31614538616575,
4,4,0.34814981683798774,1,0,Schematic,ideal,2019_Mar_17_1117,Face-Threshold,3.0.4,60.31614538616575,
5,4,0.3060421945095867,1,0,Schematic,ideal,2019_Mar_17_1117,Face-Threshold,3.0.4,60.31614538616575,
6,4,0.26814921323472907,1,0,Schematic,ideal,2019_Mar_17_1117,Face-Threshold,3.0.4,60.31614538616575,
7,4,0.2339410768867216,1,0,Schematic,ideal,2019_Mar_17_1117,Face-Threshold,3.0.4,60.31614538616575,
8,4,0.20260312889986082,1,0,Schematic,ideal,2019_Mar_17_1117,Face-Threshold,3.0.4,60.31614538616575,
9,4,0.172903911404083,1,0,Schematic,ideal,2019_Mar_17_1117,Face-Threshold,3.0.4,60.31614538616575,
10,4,0.14452210303640406,1,0,Schematic,ideal,2019_Mar_17_1117,Face-Threshold,3.0.4,60.31614538616575,
11,4,0.11724014663125376,1,0,Schematic,ideal,2019_Mar_17_1117,Face-Threshold,3.0.4,60.31614538616575,
12,4,0.09037944510090834,1,0,Schematic,ideal,2019_Mar_17_1117,Face-Threshold,3.0.4,60.31614538616575,
13,4,0.06467782174383485,1,0,Schematic,ideal,2019_Mar_17_1117,Face-Threshold,3.0.4,60.31614538616575,
14,4,0.039957066213195114,1,0,Schematic,ideal,2019_Mar_17_1117,Face-Threshold,3.0.4,60.31614538616575,
15,4,0.0157676385347143,1,0,Schematic,ideal,2019_Mar_17_1117,Face-Threshold,3.0.4,60.31614538616575,
16,4,0,0,0,Schematic,ideal,2019_Mar_17_1117,Face-Threshold,3.0.4,60.31614538616575,
17,4,0.03609680688964256,1,0,Schematic,ideal,2019_Mar_17_1117,Face-Threshold,3.0.4,60.31614538616575,
18,4,0.015544358618723553,1,0,Schematic,ideal,2019_Mar_17_1117,Face-Threshold,3.0.4,60.31614538616575,
19,4,0,1,0,Schematic,ideal,2019_Mar_17_1117,Face-Threshold,3.0.4,60.31614538616575,
20,4,0,1,0,Schematic,ideal,2019_Mar_17_1117,Face-Threshold,3.0.4,60.31614538616575,
21,4,0,1,0,Schematic,ideal,2019_Mar_17_1117,Face-Threshold,3.0.4,60.31614538616575,
22,4,0,0,0,Schematic,ideal,2019_Mar_17_1117,Face-Threshold,3.0.4,60.31614538616575,
23,4,0,1,0,Schematic,ideal,2019_Mar_17_1117,Face-Threshold,3.0.4,60.31614538616575,
24,4,0,0,0,Schematic,ideal,2019_Mar_17_1117,Face-Threshold,3.0.4,60.31614538616575,
25,4,0,0,0,Schematic,ideal,2019_Mar_17_1117,Face-Threshold,3.0.4,60.31614538616575,
26,4,0.024872596417066073,1,0,Schematic,ideal,2019_Mar_17_1117,Face-Threshold,3.0.4,60.31614538616575,
27,4,0.010300022901047423,1,0,Schematic,ideal,2019_Mar_17_1117,Face-Threshold,3.0.4,60.31614538616575,
28,4,0,1,0,Schematic,ideal,2019_Mar_17_1117,Face-Threshold,3.0.4,60.31614538616575,
29,4,0,0,0,Schematic,ideal,2019_Mar_17_1117,Face-Threshold,3.0.4,60.31614538616575,
30,4,0.0080823070072647,0,0,Schematic,ideal,2019_Mar_17_1117,Face-Threshold,3.0.4,60.31614538616575,
31,4,0.03133555769489743,1,0,Schematic,ideal,2019_Mar_17_1117,Face-Threshold,3.0.4,60.31614538616575,
32,4,0.018126976183157673,1,0,Schematic,ideal,2019_Mar_17_1117,Face-Threshold,3.0.4,60.31614538616575,
33,4,0.0058775404192750735,0,0,Schematic,ideal,2019_Mar_17_1117,Face-Threshold,3.0.4,60.31614538616575,
34,4,0.027152810438072106,1,0,Schematic,ideal,2019_Mar_17_1117,Face-Threshold,3.0.4,60.31614538616575,
35,4,0.014969933967345306,1,0,Schematic,ideal,2019_Mar_17_1117,Face-Threshold,3.0.4,60.31614538616575,
36,4,0.004083595839170173,1,0,Schematic,ideal,2019_Mar_17_1117,Face-Threshold,3.0.4,60.31614538616575,
37,4,0,1,0,Schematic,ideal,2019_Mar_17_1117,Face-Threshold,3.0.4,60.31614538616575,
38,4,0,0,0,Schematic,ideal,2019_Mar_17_1117,Face-Threshold,3.0.4,60.31614538616575,
39,4,0.002322970327773677,0,0,Schematic,ideal,2019_Mar_17_1117,Face-Threshold,3.0.4,60.31614538616575,
40,4,0.019371533654347795,1,0,Schematic,ideal,2019_Mar_17_1117,Face-Threshold,3.0.4,60.31614538616575,
41,4,0.009072272143601123,1,0,Schematic,ideal,2019_Mar_17_1117,Face-Threshold,3.0.4,60.31614538616575,
42,4,0,0,0,Schematic,ideal,2019_Mar_17_1117,Face-Threshold,3.0.4,60.31614538616575,
43,4,0.01562141348760665,1,0,Schematic,ideal,2019_Mar_17_1117,Face-Threshold,3.0.4,60.31614538616575,
44,4,0.005990584194192794,1,0,Schematic,ideal,2019_Mar_17_1117,Face-Threshold,3.0.4,60.31614538616575,
45,4,0,1,0,Schematic,ideal,2019_Mar_17_1117,Face-Threshold,3.0.4,60.31614538616575,
46,4,0,0,0,Schematic,ideal,2019_Mar_17_1117,Face-Threshold,3.0.4,60.31614538616575,
47,4,0.0037758160325374046,0,0,Schematic,ideal,2019_Mar_17_1117,Face-Threshold,3.0.4,60.31614538616575,
48,4,0.018111396737537977,1,0,Schematic,ideal,2019_Mar_17_1117,Face-Threshold,3.0.4,60.31614538616575,
49,4,0.009204380079881336,1,0,Schematic,ideal,2019_Mar_17_1117,Face-Threshold,3.0.4,60.31614538616575,
50,4,0.0010441876291626406,1,0,Schematic,ideal,2019_Mar_17_1117,Face-Threshold,3.0.4,60.31614538616575,
51,4,0,0,0,Schematic,ideal,2019_Mar_17_1117,Face-Threshold,3.0.4,60.31614538616575,
52,4,0.006938314872355522,1,0,Schematic,ideal,2019_Mar_17_1117,Face-Threshold,3.0.4,60.31614538616575,
53,4,0,0,0,Schematic,ideal,2019_Mar_17_1117,Face-Threshold,3.0.4,60.31614538616575,
54,4,0.012078268182566576,1,0,Schematic,ideal,2019_Mar_17_1117,Face-Threshold,3.0.4,60.31614538616575,
55,4,0.004502859426133876,1,0,Schematic,ideal,2019_Mar_17_1117,Face-Threshold,3.0.4,60.31614538616575,
56,4,0,0,0,Schematic,ideal,2019_Mar_17_1117,Face-Threshold,3.0.4,60.31614538616575,
57,4,0.009647835210887135,1,0,Schematic,ideal,2019_Mar_17_1117,Face-Threshold,3.0.4,60.31614538616575,
58,4,0.0024957238260824854,1,0,Schematic,ideal,2019_Mar_17_1117,Face-Threshold,3.0.4,60.31614538616575,
59,4,0,1,0,Schematic,ideal,2019_Mar_17_1117,Face-Threshold,3.0.4,60.31614538616575,
60,4,0,1,0,Schematic,ideal,2019_Mar_17_1117,Face-Threshold,3.0.4,60.31614538616575,
61,4,0,1,0,Schematic,ideal,2019_Mar_17_1117,Face-Threshold,3.0.4,60.31614538616575,
62,4,0,1,0,Schematic,ideal,2019_Mar_17_1117,Face-Threshold,3.0.4,60.31614538616575,
63,4,0,1,0,Schematic,ideal,2019_Mar_17_1117,Face-Threshold,3.0.4,60.31614538616575,
64,4,0,0,0,Schematic,ideal,2019_Mar_17_1117,Face-Threshold,3.0.4,60.31614538616575,
65,4,0,1,0,Schematic,ideal,2019_Mar_17_1117,Face-Threshold,3.0.4,60.31614538616575,
66,4,0,1,0,Schematic,ideal,2019_Mar_17_1117,Face-Threshold,3.0.4,60.31614538616575,
67,4,0,0,0,Schematic,ideal,2019_Mar_17_1117,Face-Threshold,3.0.4,60.31614538616575,
68,4,0,1,0,Schematic,ideal,2019_Mar_17_1117,Face-Threshold,3.0.4,60.31614538616575,
69,4,0,1,0,Schematic,ideal,2019_Mar_17_1117,Face-Threshold,3.0.4,60.31614538616575,
70,4,0,1,0,Schematic,ideal,2019_Mar_17_1117,Face-Threshold,3.0.4,60.31614538616575,
71,4,0,0,0,Schematic,ideal,2019_Mar_17_1117,Face-Threshold,3.0.4,60.31614538616575,
72,4,0,1,0,Schematic,ideal,2019_Mar_17_1117,Face-Threshold,3.0.4,60.31614538616575,
73,4,0,1,0,Schematic,ideal,2019_Mar_17_1117,Face-Threshold,3.0.4,60.31614538616575,
74,4,0,0,0,Schematic,ideal,2019_Mar_17_1117,Face-Threshold,3.0.4,60.31614538616575,
75,4,0,1,0,Schematic,ideal,2019_Mar_17_1117,Face-Threshold,3.0.4,60.31614538616575,
76,4,0,0,0,Schematic,ideal,2019_Mar_17_1117,Face-Threshold,3.0.4,60.31614538616575,
77,4,0,0,0,Schematic,ideal,2019_Mar_17_1117,Face-Threshold,3.0.4,60.31614538616575,
78,4,0,0,0,Schematic,ideal,2019_Mar_17_1117,Face-Threshold,3.0.4,60.31614538616575,
79,4,0,1,0,Schematic,ideal,2019_Mar_17_1117,Face-Threshold,3.0.4,60.31614538616575,
80,4,0,1,0,Schematic,ideal,2019_Mar_17_1117,Face-Threshold,3.0.4,60.31614538616575,
81,4,0,0,0,Schematic,ideal,2019_Mar_17_1117,Face-Threshold,3.0.4,60.31614538616575,
82,4,0,1,0,Schematic,ideal,2019_Mar_17_1117,Face-Threshold,3.0.4,60.31614538616575,
83,4,0,0,0,Schematic,ideal,2019_Mar_17_1117,Face-Threshold,3.0.4,60.31614538616575,
84,4,0,0,0,Schematic,ideal,2019_Mar_17_1117,Face-Threshold,3.0.4,60.31614538616575,
85,4,0.004478377969799885,1,0,Schematic,ideal,2019_Mar_17_1117,Face-Threshold,3.0.4,60.31614538616575,
86,4,0,1,0,Schematic,ideal,2019_Mar_17_1117,Face-Threshold,3.0.4,60.31614538616575,
87,4,0,1,0,Schematic,ideal,2019_Mar_17_1117,Face-Threshold,3.0.4,60.31614538616575,
88,4,0,1,0,Schematic,ideal,2019_Mar_17_1117,Face-Threshold,3.0.4,60.31614538616575,
89,4,0,0,0,Schematic,ideal,2019_Mar_17_1117,Face-Threshold,3.0.4,60.31614538616575,
90,4,0,1,0,Schematic,ideal,2019_Mar_17_1117,Face-Threshold,3.0.4,60.31614538616575,
91,4,0,0,0,Schematic,ideal,2019_Mar_17_1117,Face-Threshold,3.0.4,60.31614538616575,
92,4,0,0,0,Schematic,ideal,2019_Mar_17_1117,Face-Threshold,3.0.4,60.31614538616575,
93,4,0.005080732114515596,1,0,Schematic,ideal,2019_Mar_17_1117,Face-Threshold,3.0.4,60.31614538616575,
94,4,0.00030489399459615596,0,0,Schematic,ideal,2019_Mar_17_1117,Face-Threshold,3.0.4,60.31614538616575,
95,4,0.007996203738727836,1,0,Schematic,ideal,2019_Mar_17_1117,Face-Threshold,3.0.4,60.31614538616575,
96,4,0.00338624079227251,1,0,Schematic,ideal,2019_Mar_17_1117,Face-Threshold,3.0.4,60.31614538616575,
97,4,0,0,0,Schematic,ideal,2019_Mar_17_1117,Face-Threshold,3.0.4,60.31614538616575,
98,4,0.006455595898385957,1,0,Schematic,ideal,2019_Mar_17_1117,Face-Threshold,3.0.4,60.31614538616575,
99,4,0.0019495983939061268,1,0,Schematic,ideal,2019_Mar_17_1117,Face-Threshold,3.0.4,60.31614538616575,
100,4,0,1,0,Schematic,ideal,2019_Mar_17_1117,Face-Threshold,3.0.4,60.31614538616575,
101,4,0,1,0,Schematic,ideal,2019_Mar_17_1117,Face-Threshold,3.0.4,60.31614538616575,
102,4,0,0,0,Schematic,ideal,2019_Mar_17_1117,Face-Threshold,3.0.4,60.31614538616575,
103,4,0,0,0,Schematic,ideal,2019_Mar_17_1117,Face-Threshold,3.0.4,60.31614538616575,
104,4,0.003746263205612277,1,0,Schematic,ideal,2019_Mar_17_1117,Face-Threshold,3.0.4,60.31614538616575,
105,4,0,0,0,Schematic,ideal,2019_Mar_17_1117,Face-Threshold,3.0.4,60.31614538616575,
106,4,0.006570120707590554,1,0,Schematic,ideal,2019_Mar_17_1117,Face-Threshold,3.0.4,60.31614538616575,
107,4,0.002386161452362201,1,0,Schematic,ideal,2019_Mar_17_1117,Face-Threshold,3.0.4,60.31614538616575,
108,4,0,1,0,Schematic,ideal,2019_Mar_17_1117,Face-Threshold,3.0.4,60.31614538616575,
109,4,0,1,0,Schematic,ideal,2019_Mar_17_1117,Face-Threshold,3.0.4,60.31614538616575,
110,4,0,0,0,Schematic,ideal,2019_Mar_17_1117,Face-Threshold,3.0.4,60.31614538616575,
111,4,0,0,0,Schematic,ideal,2019_Mar_17_1117,Face-Threshold,3.0.4,60.31614538616575,
112,4,0.004008512346550641,0,0,Schematic,ideal,2019_Mar_17_1117,Face-Threshold,3.0.4,60.31614538616575,
113,4,0.010385329406292665,1,0,Schematic,ideal,2019_Mar_17_1117,Face-Threshold,3.0.4,60.31614538616575,
114,4,0.006461951649575248,1,0,Schematic,ideal,2019_Mar_17_1117,Face-Threshold,3.0.4,60.31614538616575,
115,4,0.0025596410258011404,1,0,Schematic,ideal,2019_Mar_17_1117,Face-Threshold,3.0.4,60.31614538616575,
116,4,0,1,0,Schematic,ideal,2019_Mar_17_1117,Face-Threshold,3.0.4,60.31614538616575,
117,4,0,1,0,Schematic,ideal,2019_Mar_17_1117,Face-Threshold,3.0.4,60.31614538616575,
118,4,0,0,0,Schematic,ideal,2019_Mar_17_1117,Face-Threshold,3.0.4,60.31614538616575,
119,4,0,0,0,Schematic,ideal,2019_Mar_17_1117,Face-Threshold,3.0.4,60.31614538616575,
120,4,0.004045007390698185,0,0,Schematic,ideal,2019_Mar_17_1117,Face-Threshold,3.0.4,60.31614538616575,
121,4,0.009971694682476828,1,0,Schematic,ideal,2019_Mar_17_1117,Face-Threshold,3.0.4,60.31614538616575,
122,4,0.006331242341084564,1,0,Schematic,ideal,2019_Mar_17_1117,Face-Threshold,3.0.4,60.31614538616575,
123,4,0.002675674975557929,0,0,Schematic,ideal,2019_Mar_17_1117,Face-Threshold,3.0.4,60.31614538616575,
124,4,0.00851016693815182,1,0,Schematic,ideal,2019_Mar_17_1117,Face-Threshold,3.0.4,60.31614538616575,
125,4,0.004946438814103782,1,0,Schematic,ideal,2019_Mar_17_1117,Face-Threshold,3.0.4,60.31614538616575,
126,4,0.0015017240405070242,1,0,Schematic,ideal,2019_Mar_17_1117,Face-Threshold,3.0.4,60.31614538616575,
127,4,0,0,0,Schematic,ideal,2019_Mar_17_1117,Face-Threshold,3.0.4,60.31614538616575,
128,4,0.003901694752692697,1,0,Schematic,ideal,2019_Mar_17_1117,Face-Threshold,3.0.4,60.31614538616575,
129,4,0.0005099469866545192,1,0,Schematic,ideal,2019_Mar_17_1117,Face-Threshold,3.0.4,60.31614538616575,
130,4,0,0,0,Schematic,ideal,2019_Mar_17_1117,Face-Threshold,3.0.4,60.31614538616575,
131,4,0.0028910590379829237,1,0,Schematic,ideal,2019_Mar_17_1117,Face-Threshold,3.0.4,60.31614538616575,
132,4,0,1,0,Schematic,ideal,2019_Mar_17_1117,Face-Threshold,3.0.4,60.31614538616575,
133,4,0,0,0,Schematic,ideal,2019_Mar_17_1117,Face-Threshold,3.0.4,60.31614538616575,
134,4,0.0019120581021918603,0,0,Schematic,ideal,2019_Mar_17_1117,Face-Threshold,3.0.4,60.31614538616575,
135,4,0.0073226972162103166,0,0,Schematic,ideal,2019_Mar_17_1117,Face-Threshold,3.0.4,60.31614538616575,
136,4,0.01324104107262597,1,0,Schematic,ideal,2019_Mar_17_1117,Face-Threshold,3.0.4,60.31614538616575,
137,4,0.009696843301425784,1,0,Schematic,ideal,2019_Mar_17_1117,Face-Threshold,3.0.4,60.31614538616575,
138,4,0.006471832626264606,1,0,Schematic,ideal,2019_Mar_17_1117,Face-Threshold,3.0.4,60.31614538616575,
139,4,0.0032367971769777237,1,0,Schematic,ideal,2019_Mar_17_1117,Face-Threshold,3.0.4,60.31614538616575,
140,4,9.613859417390014e-05,1,0,Schematic,ideal,2019_Mar_17_1117,Face-Threshold,3.0.4,60.31614538616575,
141,4,0,1,0,Schematic,ideal,2019_Mar_17_1117,Face-Threshold,3.0.4,60.31614538616575,
142,4,0,1,0,Schematic,ideal,2019_Mar_17_1117,Face-Threshold,3.0.4,60.31614538616575,
143,4,0,0,0,Schematic,ideal,2019_Mar_17_1117,Face-Threshold,3.0.4,60.31614538616575,
144,4,0,0,0,Schematic,ideal,2019_Mar_17_1117,Face-Threshold,3.0.4,60.31614538616575,
145,4,0.00139497651677295,0,0,Schematic,ideal,2019_Mar_17_1117,Face-Threshold,3.0.4,60.31614538616575,
146,4,0.00642205143911434,1,0,Schematic,ideal,2019_Mar_17_1117,Face-Threshold,3.0.4,60.31614538616575,
147,4,0.003358374658581076,0,0,Schematic,ideal,2019_Mar_17_1117,Face-Threshold,3.0.4,60.31614538616575,
148,4,0.008234117891704862,1,0,Schematic,ideal,2019_Mar_17_1117,Face-Threshold,3.0.4,60.31614538616575,
149,4,0.005234982223393747,0,0,Schematic,ideal,2019_Mar_17_1117,Face-Threshold,3.0.4,60.31614538616575,
150,4,0.010416919487757914,1,0,Schematic,ideal,2019_Mar_17_1117,Face-Threshold,3.0.4,60.31614538616575,
151,4,0.007430153665925365,1,0,Schematic,ideal,2019_Mar_17_1117,Face-Threshold,3.0.4,60.31614538616575,
152,4,0.004486966501453082,1,0,Schematic,ideal,2019_Mar_17_1117,Face-Threshold,3.0.4,60.31614538616575,
153,4,0.001641114129734167,0,0,Schematic,ideal,2019_Mar_17_1117,Face-Threshold,3.0.4,60.31614538616575,
154,4,0.006387598759962254,0,0,Schematic,ideal,2019_Mar_17_1117,Face-Threshold,3.0.4,60.31614538616575,
155,4,0.011473043484571621,1,0,Schematic,ideal,2019_Mar_17_1117,Face-Threshold,3.0.4,60.31614538616575,
156,4,0.008478519096218495,1,0,Schematic,ideal,2019_Mar_17_1117,Face-Threshold,3.0.4,60.31614538616575,
157,4,0.005642521165742653,1,0,Schematic,ideal,2019_Mar_17_1117,Face-Threshold,3.0.4,60.31614538616575,
158,4,0.0027923977483625406,1,0,Schematic,ideal,2019_Mar_17_1117,Face-Threshold,3.0.4,60.31614538616575,
159,4,2.3189070366747e-05,1,0,Schematic,ideal,2019_Mar_17_1117,Face-Threshold,3.0.4,60.31614538616575,
160,4,0,0,0,Schematic,ideal,2019_Mar_17_1117,Face-Threshold,3.0.4,60.31614538616575,
161,4,0.001962624890752107,1,0,Schematic,ideal,2019_Mar_17_1117,Face-Threshold,3.0.4,60.31614538616575,
162,4,0,1,0,Schematic,ideal,2019_Mar_17_1117,Face-Threshold,3.0.4,60.31614538616575,
163,4,0,1,0,Schematic,ideal,2019_Mar_17_1117,Face-Threshold,3.0.4,60.31614538616575,
164,4,0,0,0,Schematic,ideal,2019_Mar_17_1117,Face-Threshold,3.0.4,60.31614538616575,
165,4,0,1,0,Schematic,ideal,2019_Mar_17_1117,Face-Threshold,3.0.4,60.31614538616575,
166,4,0,1,0,Schematic,ideal,2019_Mar_17_1117,Face-Threshold,3.0.4,60.31614538616575,
167,4,0,0,0,Schematic,ideal,2019_Mar_17_1117,Face-Threshold,3.0.4,60.31614538616575,
168,4,0,0,0,Schematic,ideal,2019_Mar_17_1117,Face-Threshold,3.0.4,60.31614538616575,
169,4,0.002203513916593125,1,0,Schematic,ideal,2019_Mar_17_1117,Face-Threshold,3.0.4,60.31614538616575,
170,4,0,0,0,Schematic,ideal,2019_Mar_17_1117,Face-Threshold,3.0.4,60.31614538616575,
171,4,0.003968735713726967,0,0,Schematic,ideal,2019_Mar_17_1117,Face-Threshold,3.0.4,60.31614538616575,
172,4,0.008141551521520629,1,0,Schematic,ideal,2019_Mar_17_1117,Face-Threshold,3.0.4,60.31614538616575,
173,4,0.005560791651605612,1,0,Schematic,ideal,2019_Mar_17_1117,Face-Threshold,3.0.4,60.31614538616575,
174,4,0.002967158645619472,1,0,Schematic,ideal,2019_Mar_17_1117,Face-Threshold,3.0.4,60.31614538616575,
175,4,0.0004490877190789777,0,0,Schematic,ideal,2019_Mar_17_1117,Face-Threshold,3.0.4,60.31614538616575,
176,4,0.004660054343106679,1,0,Schematic,ideal,2019_Mar_17_1117,Face-Threshold,3.0.4,60.31614538616575,
177,4,0.0022021851451392016,1,0,Schematic,ideal,2019_Mar_17_1117,Face-Threshold,3.0.4,60.31614538616575,
178,4,0,1,0,Schematic,ideal,2019_Mar_17_1117,Face-Threshold,3.0.4,60.31614538616575,
179,4,0,0,0,Schematic,ideal,2019_Mar_17_1117,Face-Threshold,3.0.4,60.31614538616575,
180,4,0.001454694743470042,0,0,Schematic,ideal,2019_Mar_17_1117,Face-Threshold,3.0.4,60.31614538616575,
181,4,0.005511383547048165,1,0,Schematic,ideal,2019_Mar_17_1117,Face-Threshold,3.0.4,60.31614538616575,
182,4,0.003029565910591281,1,0,Schematic,ideal,2019_Mar_17_1117,Face-Threshold,3.0.4,60.31614538616575,
183,4,0.0006207249223784683,1,0,Schematic,ideal,2019_Mar_17_1117,Face-Threshold,3.0.4,60.31614538616575,
184,4,0,1,0,Schematic,ideal,2019_Mar_17_1117,Face-Threshold,3.0.4,60.31614538616575,
185,4,0,0,0,Schematic,ideal,2019_Mar_17_1117,Face-Threshold,3.0.4,60.31614538616575,
186,4,0,0,0,Schematic,ideal,2019_Mar_17_1117,Face-Threshold,3.0.4,60.31614538616575,
187,4,0.003903749809984647,1,0,Schematic,ideal,2019_Mar_17_1117,Face-Threshold,3.0.4,60.31614538616575,
188,4,0.0015738661215048966,1,0,Schematic,ideal,2019_Mar_17_1117,Face-Threshold,3.0.4,60.31614538616575,
189,4,0,0,0,Schematic,ideal,2019_Mar_17_1117,Face-Threshold,3.0.4,60.31614538616575,
190,4,0.003177665669575891,0,0,Schematic,ideal,2019_Mar_17_1117,Face-Threshold,3.0.4,60.31614538616575,
191,4,0.006964255655392659,1,0,Schematic,ideal,2019_Mar_17_1117,Face-Threshold,3.0.4,60.31614538616575,
192,4,0.004627497447297679,0,0,Schematic,ideal,2019_Mar_17_1117,Face-Threshold,3.0.4,60.31614538616575,
193,4,0.008329743702464532,1,0,Schematic,ideal,2019_Mar_17_1117,Face-Threshold,3.0.4,60.31614538616575,
194,4,0.006029158050072647,1,0,Schematic,ideal,2019_Mar_17_1117,Face-Threshold,3.0.4,60.31614538616575,
195,4,0.003720563297099022,0,0,Schematic,ideal,2019_Mar_17_1117,Face-Threshold,3.0.4,60.31614538616575,
196,4,0.007387995379504464,1,0,Schematic,ideal,2019_Mar_17_1117,Face-Threshold,3.0.4,60.31614538616575,
197,4,0.005118249569619926,1,0,Schematic,ideal,2019_Mar_17_1117,Face-Threshold,3.0.4,60.31614538616575,
198,4,0.002834754146976981,0,0,Schematic,ideal,2019_Mar_17_1117,Face-Threshold,3.0.4,60.31614538616575,
199,4,0.006471722829556659,0,0,Schematic,ideal,2019_Mar_17_1117,Face-Threshold,3.0.4,60.31614538616575,
200,4,0.01032582985567787,1,0,Schematic,ideal,2019_Mar_17_1117,Face-Threshold,3.0.4,60.31614538616575,
201,4,0.008079521932285727,1,0,Schematic,ideal,2019_Mar_17_1117,Face-Threshold,3.0.4,60.31614538616575,
202,4,0.005875488277788443,1,0,Schematic,ideal,2019_Mar_17_1117,Face-Threshold,3.0.4,60.31614538616575,
203,4,0.003662901048803291,1,0,Schematic,ideal,2019_Mar_17_1117,Face-Threshold,3.0.4,60.31614538616575,
204,4,0.0015197575182268608,0,0,Schematic,ideal,2019_Mar_17_1117,Face-Threshold,3.0.4,60.31614538616575,
205,4,0.005092950955626618,0,0,Schematic,ideal,2019_Mar_17_1117,Face-Threshold,3.0.4,60.31614538616575,
206,4,0.008821945818004606,1,0,Schematic,ideal,2019_Mar_17_1117,Face-Threshold,3.0.4,60.31614538616575,
207,4,0.006677413931019838,1,0,Schematic,ideal,2019_Mar_17_1117,Face-Threshold,3.0.4,60.31614538616575,
208,4,0.004529530346890243,1,0,Schematic,ideal,2019_Mar_17_1117,Face-Threshold,3.0.4,60.31614538616575,
209,4,0.002454503011989184,1,0,Schematic,ideal,2019_Mar_17_1117,Face-Threshold,3.0.4,60.31614538616575,
210,4,0.0003505061926019071,1,0,Schematic,ideal,2019_Mar_17_1117,Face-Threshold,3.0.4,60.31614538616575,
211,4,0,0,0,Schematic,ideal,2019_Mar_17_1117,Face-Threshold,3.0.4,60.31614538616575,
212,4,0.0018111733754309078,0,0,Schematic,ideal,2019_Mar_17_1117,Face-Threshold,3.0.4,60.31614538616575,
213,4,0.005238903095393377,0,0,Schematic,ideal,2019_Mar_17_1117,Face-Threshold,3.0.4,60.31614538616575,
214,4,0.008822501059170762,1,0,Schematic,ideal,2019_Mar_17_1117,Face-Threshold,3.0.4,60.31614538616575,
215,4,0.006759189016207867,1,0,Schematic,ideal,2019_Mar_17_1117,Face-Threshold,3.0.4,60.31614538616575,
216,4,0.004693217411347539,1,0,Schematic,ideal,2019_Mar_17_1117,Face-Threshold,3.0.4,60.31614538616575,
217,4,0.0026984119910210547,0,0,Schematic,ideal,2019_Mar_17_1117,Face-Threshold,3.0.4,60.31614538616575,
218,4,0.006013793186078864,1,0,Schematic,ideal,2019_Mar_17_1117,Face-Threshold,3.0.4,60.31614538616575,
219,4,0.003969014856232689,1,0,Schematic,ideal,2019_Mar_17_1117,Face-Threshold,3.0.4,60.31614538616575,
220,4,0.001990414838420662,1,0,Schematic,ideal,2019_Mar_17_1117,Face-Threshold,3.0.4,60.31614538616575,
221,4,0,1,0,Schematic,ideal,2019_Mar_17_1117,Face-Threshold,3.0.4,60.31614538616575,
222,4,0,1,0,Schematic,ideal,2019_Mar_17_1117,Face-Threshold,3.0.4,60.31614538616575,
223,4,0,1,0,Schematic,ideal,2019_Mar_17_1117,Face-Threshold,3.0.4,60.31614538616575,
224,4,0,1,0,Schematic,ideal,2019_Mar_17_1117,Face-Threshold,3.0.4,60.31614538616575,
225,4,0,0,0,Schematic,ideal,2019_Mar_17_1117,Face-Threshold,3.0.4,60.31614538616575,
226,4,0,1,0,Schematic,ideal,2019_Mar_17_1117,Face-Threshold,3.0.4,60.31614538616575,
227,4,0,0,0,Schematic,ideal,2019_Mar_17_1117,Face-Threshold,3.0.4,60.31614538616575,
228,4,0,1,0,Schematic,ideal,2019_Mar_17_1117,Face-Threshold,3.0.4,60.31614538616575,
229,4,0,1,0,Schematic,ideal,2019_Mar_17_1117,Face-Threshold,3.0.4,60.31614538616575,
230,4,0,0,0,Schematic,ideal,2019_Mar_17_1117,Face-Threshold,3.0.4,60.31614538616575,
231,4,0,1,0,Schematic,ideal,2019_Mar_17_1117,Face-Threshold,3.0.4,60.31614538616575,
232,4,0,0,0,Schematic,ideal,2019_Mar_17_1117,Face-Threshold,3.0.4,60.31614538616575,
233,4,0,0,0,Schematic,ideal,2019_Mar_17_1117,Face-Threshold,3.0.4,60.31614538616575,
234,4,0.000950207907600753,1,0,Schematic,ideal,2019_Mar_17_1117,Face-Threshold,3.0.4,60.31614538616575,
235,4,0,0,0,Schematic,ideal,2019_Mar_17_1117,Face-Threshold,3.0.4,60.31614538616575,
236,4,0.002249172688453427,0,0,Schematic,ideal,2019_Mar_17_1117,Face-Threshold,3.0.4,60.31614538616575,
237,4,0.005321422499870665,1,0,Schematic,ideal,2019_Mar_17_1117,Face-Threshold,3.0.4,60.31614538616575,
238,4,0.0034288506830500998,1,0,Schematic,ideal,2019_Mar_17_1117,Face-Threshold,3.0.4,60.31614538616575,
239,4,0.0015947655437013042,1,0,Schematic,ideal,2019_Mar_17_1117,Face-Threshold,3.0.4,60.31614538616575,
240,4,0,1,0,Schematic,ideal,2019_Mar_17_1117,Face-Threshold,3.0.4,60.31614538616575,
241,4,0,1,0,Schematic,ideal,2019_Mar_17_1117,Face-Threshold,3.0.4,60.31614538616575,
242,4,0,0,0,Schematic,ideal,2019_Mar_17_1117,Face-Threshold,3.0.4,60.31614538616575,
243,4,0,1,0,Schematic,ideal,2019_Mar_17_1117,Face-Threshold,3.0.4,60.31614538616575,
244,4,0,0,0,Schematic,ideal,2019_Mar_17_1117,Face-Threshold,3.0.4,60.31614538616575,
245,4,0.0004715234181191241,1,0,Schematic,ideal,2019_Mar_17_1117,Face-Threshold,3.0.4,60.31614538616575,
246,4,0,0,0,Schematic,ideal,2019_Mar_17_1117,Face-Threshold,3.0.4,60.31614538616575,
247,4,0.0017252302703756883,1,0,Schematic,ideal,2019_Mar_17_1117,Face-Threshold,3.0.4,60.31614538616575,
248,4,0,1,0,Schematic,ideal,2019_Mar_17_1117,Face-Threshold,3.0.4,60.31614538616575,
249,4,0,0,0,Schematic,ideal,2019_Mar_17_1117,Face-Threshold,3.0.4,60.31614538616575,
250,4,0.0011750489793171948,0,0,Schematic,ideal,2019_Mar_17_1117,Face-Threshold,3.0.4,60.31614538616575,
251,4,0.004119074029211689,1,0,Schematic,ideal,2019_Mar_17_1117,Face-Threshold,3.0.4,60.31614538616575,
252,4,0.0023879761544249867,1,0,Schematic,ideal,2019_Mar_17_1117,Face-Threshold,3.0.4,60.31614538616575,
253,4,0.0006328510568741064,1,0,Schematic,ideal,2019_Mar_17_1117,Face-Threshold,3.0.4,60.31614538616575,
254,4,0,1,0,Schematic,ideal,2019_Mar_17_1117,Face-Threshold,3.0.4,60.31614538616575,
255,4,0,1,0,Schematic,ideal,2019_Mar_17_1117,Face-Threshold,3.0.4,60.31614538616575,
256,4,0,1,0,Schematic,ideal,2019_Mar_17_1117,Face-Threshold,3.0.4,60.31614538616575,
257,4,0,0,0,Schematic,ideal,2019_Mar_17_1117,Face-Threshold,3.0.4,60.31614538616575,
258,4,0,0,0,Schematic,ideal,2019_Mar_17_1117,Face-Threshold,3.0.4,60.31614538616575,
259,4,0,0,0,Schematic,ideal,2019_Mar_17_1117,Face-Threshold,3.0.4,60.31614538616575,
260,4,0.0024829894631070992,1,0,Schematic,ideal,2019_Mar_17_1117,Face-Threshold,3.0.4,60.31614538616575,
261,4,0.0007816003581394559,1,0,Schematic,ideal,2019_Mar_17_1117,Face-Threshold,3.0.4,60.31614538616575,
262,4,0,0,0,Schematic,ideal,2019_Mar_17_1117,Face-Threshold,3.0.4,60.31614538616575,
263,4,0.0019542844641659007,1,0,Schematic,ideal,2019_Mar_17_1117,Face-Threshold,3.0.4,60.31614538616575,
264,4,0.000260896370417818,0,0,Schematic,ideal,2019_Mar_17_1117,Face-Threshold,3.0.4,60.31614538616575,
265,4,0.0030922880337265757,1,0,Schematic,ideal,2019_Mar_17_1117,Face-Threshold,3.0.4,60.31614538616575,
266,4,0.001433114733337959,1,0,Schematic,ideal,2019_Mar_17_1117,Face-Threshold,3.0.4,60.31614538616575,
267,4,0,1,0,Schematic,ideal,2019_Mar_17_1117,Face-Threshold,3.0.4,60.31614538616575,
268,4,0,1,0,Schematic,ideal,2019_Mar_17_1117,Face-Threshold,3.0.4,60.31614538616575,
269,4,0,0,0,Schematic,ideal,2019_Mar_17_1117,Face-Threshold,3.0.4,60.31614538616575,
270,4,0,0,0,Schematic,ideal,2019_Mar_17_1117,Face-Threshold,3.0.4,60.31614538616575,
271,4,0.002055046761002155,0,0,Schematic,ideal,2019_Mar_17_1117,Face-Threshold,3.0.4,60.31614538616575,
272,4,0.0047506594891042475,0,0,Schematic,ideal,2019_Mar_17_1117,Face-Threshold,3.0.4,60.31614538616575,
273,4,0.007362516076150516,1,0,Schematic,ideal,2019_Mar_17_1117,Face-Threshold,3.0.4,60.31614538616575,
274,4,0.00573239277123222,1,0,Schematic,ideal,2019_Mar_17_1117,Face-Threshold,3.0.4,60.31614538616575,
275,4,0.0040956454164386424,1,0,Schematic,ideal,2019_Mar_17_1117,Face-Threshold,3.0.4,60.31614538616575,
276,4,0.0025128666897879515,1,0,Schematic,ideal,2019_Mar_17_1117,Face-Threshold,3.0.4,60.31614538616575,
277,4,0.0009088106912644167,0,0,Schematic,ideal,2019_Mar_17_1117,Face-Threshold,3.0.4,60.31614538616575,
278,4,0.0035863188106651234,0,0,Schematic,ideal,2019_Mar_17_1117,Face-Threshold,3.0.4,60.31614538616575,
279,4,0.00616819227954718,1,0,Schematic,ideal,2019_Mar_17_1117,Face-Threshold,3.0.4,60.31614538616575,
280,4,0.0045653085139882865,1,0,Schematic,ideal,2019_Mar_17_1117,Face-Threshold,3.0.4,60.31614538616575,
281,4,0.0030174983975029823,1,0,Schematic,ideal,2019_Mar_17_1117,Face-Threshold,3.0.4,60.31614538616575,
282,4,0.0014509998508293598,0,0,Schematic,ideal,2019_Mar_17_1117,Face-Threshold,3.0.4,60.31614538616575,
283,4,0.004062150716324653,0,0,Schematic,ideal,2019_Mar_17_1117,Face-Threshold,3.0.4,60.31614538616575,
284,4,0.0065863658774033,1,0,Schematic,ideal,2019_Mar_17_1117,Face-Threshold,3.0.4,60.31614538616575,
285,4,0.005015517786676749,0,0,Schematic,ideal,2019_Mar_17_1117,Face-Threshold,3.0.4,60.31614538616575,
286,4,0.007706281943355486,0,0,Schematic,ideal,2019_Mar_17_1117,Face-Threshold,3.0.4,60.31614538616575,
287,4,0.010397453908610466,1,0,Schematic,ideal,2019_Mar_17_1117,Face-Threshold,3.0.4,60.31614538616575,
288,4,0.00880397631264096,1,0,Schematic,ideal,2019_Mar_17_1117,Face-Threshold,3.0.4,60.31614538616575,
289,4,0.007267084305074223,1,0,Schematic,ideal,2019_Mar_17_1117,Face-Threshold,3.0.4,60.31614538616575,
290,4,0.005730829655623326,1,0,Schematic,ideal,2019_Mar_17_1117,Face-Threshold,3.0.4,60.31614538616575,
291,4,0.004188362325919459,0,0,Schematic,ideal,2019_Mar_17_1117,Face-Threshold,3.0.4,60.31614538616575,
292,4,0.006634198753993292,0,0,Schematic,ideal,2019_Mar_17_1117,Face-Threshold,3.0.4,60.31614538616575,
293,4,0.009227764054920373,1,0,Schematic,ideal,2019_Mar_17_1117,Face-Threshold,3.0.4,60.31614538616575,
294,4,0.007719528482284632,1,0,Schematic,ideal,2019_Mar_17_1117,Face-Threshold,3.0.4,60.31614538616575,
295,4,0.006213917210186437,1,0,Schematic,ideal,2019_Mar_17_1117,Face-Threshold,3.0.4,60.31614538616575,
296,4,0.004704334377297004,0,0,Schematic,ideal,2019_Mar_17_1117,Face-Threshold,3.0.4,60.31614538616575,
297,4,0.007094258902684447,1,0,Schematic,ideal,2019_Mar_17_1117,Face-Threshold,3.0.4,60.31614538616575,
298,4,0.005601854254176697,1,0,Schematic,ideal,2019_Mar_17_1117,Face-Threshold,3.0.4,60.31614538616575,
299,4,0.0041028704136804595,0,0,Schematic,ideal,2019_Mar_17_1117,Face-Threshold,3.0.4,60.31614538616575,
300,4,0.006480324137299098,0,0,Schematic,ideal,2019_Mar_17_1117,Face-Threshold,3.0.4,60.31614538616575,
301,4,0.009000946852094849,0,0,Schematic,ideal,2019_Mar_17_1117,Face-Threshold,3.0.4,60.31614538616575,
302,4,0.011690595338508525,1,0,Schematic,ideal,2019_Mar_17_1117,Face-Threshold,3.0.4,60.31614538616575,
303,4,0.010031108384350729,1,0,Schematic,ideal,2019_Mar_17_1117,Face-Threshold,3.0.4,60.31614538616575,
304,4,0.008571456634623664,0,0,Schematic,ideal,2019_Mar_17_1117,Face-Threshold,3.0.4,60.31614538616575,
305,4,0.011180500413645156,1,0,Schematic,ideal,2019_Mar_17_1117,Face-Threshold,3.0.4,60.31614538616575,
306,4,0.009589731990609751,1,0,Schematic,ideal,2019_Mar_17_1117,Face-Threshold,3.0.4,60.31614538616575,
307,4,0.008150605018276469,0,0,Schematic,ideal,2019_Mar_17_1117,Face-Threshold,3.0.4,60.31614538616575,
308,4,0.010677086603189445,1,0,Schematic,ideal,2019_Mar_17_1117,Face-Threshold,3.0.4,60.31614538616575,
309,4,0.00916141448054536,1,0,Schematic,ideal,2019_Mar_17_1117,Face-Threshold,3.0.4,60.31614538616575,
310,4,0.007738002377992714,1,0,Schematic,ideal,2019_Mar_17_1117,Face-Threshold,3.0.4,60.31614538616575,
311,4,0.0063171863746707135,1,0,Schematic,ideal,2019_Mar_17_1117,Face-Threshold,3.0.4,60.31614538616575,
312,4,0.004893080071510736,1,0,Schematic,ideal,2019_Mar_17_1117,Face-Threshold,3.0.4,60.31614538616575,
313,4,0.003519392041362479,1,0,Schematic,ideal,2019_Mar_17_1117,Face-Threshold,3.0.4,60.31614538616575,
314,4,0.002131120077400739,1,0,Schematic,ideal,2019_Mar_17_1117,Face-Threshold,3.0.4,60.31614538616575,
315,4,0.0007229528752739078,0,0,Schematic,ideal,2019_Mar_17_1117,Face-Threshold,3.0.4,60.31614538616575,
316,4,0.0030742751986562733,1,0,Schematic,ideal,2019_Mar_17_1117,Face-Threshold,3.0.4,60.31614538616575,
317,4,0.001691525851262532,0,0,Schematic,ideal,2019_Mar_17_1117,Face-Threshold,3.0.4,60.31614538616575,
318,4,0.003994703135747402,0,0,Schematic,ideal,2019_Mar_17_1117,Face-Threshold,3.0.4,60.31614538616575,
319,4,0.006225772119901329,1,0,Schematic,ideal,2019_Mar_17_1117,Face-Threshold,3.0.4,60.31614538616575,
320,4,0.0048364166297405475,0,0,Schematic,ideal,2019_Mar_17_1117,Face-Threshold,3.0.4,60.31614538616575,
321,4,0.007034972987084498,1,0,Schematic,ideal,2019_Mar_17_1117,Face-Threshold,3.0.4,60.31614538616575,
322,4,0.005660312690056457,1,0,Schematic,ideal,2019_Mar_17_1117,Face-Threshold,3.0.4,60.31614538616575,
323,4,0.004279870985212986,1,0,Schematic,ideal,2019_Mar_17_1117,Face-Threshold,3.0.4,60.31614538616575,
324,4,0.002945857734633406,1,0,Schematic,ideal,2019_Mar_17_1117,Face-Threshold,3.0.4,60.31614538616575,
325,4,0.001595665067353258,1,0,Schematic,ideal,2019_Mar_17_1117,Face-Threshold,3.0.4,60.31614538616575,
326,4,0.00022427224434706794,1,0,Schematic,ideal,2019_Mar_17_1117,Face-Threshold,3.0.4,60.31614538616575,
327,4,0,1,0,Schematic,ideal,2019_Mar_17_1117,Face-Threshold,3.0.4,60.31614538616575,
328,4,0,1,0,Schematic,ideal,2019_Mar_17_1117,Face-Threshold,3.0.4,60.31614538616575,
329,4,0,1,0,Schematic,ideal,2019_Mar_17_1117,Face-Threshold,3.0.4,60.31614538616575,
330,4,0,1,0,Schematic,ideal,2019_Mar_17_1117,Face-Threshold,3.0.4,60.31614538616575,
331,4,0,1,0,Schematic,ideal,2019_Mar_17_1117,Face-Threshold,3.0.4,60.31614538616575,
332,4,0,0,0,Schematic,ideal,2019_Mar_17_1117,Face-Threshold,3.0.4,60.31614538616575,
333,4,0,1,0,Schematic,ideal,2019_Mar_17_1117,Face-Threshold,3.0.4,60.31614538616575,
334,4,0,1,0,Schematic,ideal,2019_Mar_17_1117,Face-Threshold,3.0.4,60.31614538616575,
335,4,0,0,0,Schematic,ideal,2019_Mar_17_1117,Face-Threshold,3.0.4,60.31614538616575,
336,4,0,0,0,Schematic,ideal,2019_Mar_17_1117,Face-Threshold,3.0.4,60.31614538616575,
337,4,0,1,0,Schematic,ideal,2019_Mar_17_1117,Face-Threshold,3.0.4,60.31614538616575,
338,4,0,1,0,Schematic,ideal,2019_Mar_17_1117,Face-Threshold,3.0.4,60.31614538616575,
339,4,0,0,0,Schematic,ideal,2019_Mar_17_1117,Face-Threshold,3.0.4,60.31614538616575,
340,4,0,0,0,Schematic,ideal,2019_Mar_17_1117,Face-Threshold,3.0.4,60.31614538616575,
341,4,0,1,0,Schematic,ideal,2019_Mar_17_1117,Face-Threshold,3.0.4,60.31614538616575,
342,4,0,1,0,Schematic,ideal,2019_Mar_17_1117,Face-Threshold,3.0.4,60.31614538616575,
343,4,0,0,0,Schematic,ideal,2019_Mar_17_1117,Face-Threshold,3.0.4,60.31614538616575,
344,4,0,0,0,Schematic,ideal,2019_Mar_17_1117,Face-Threshold,3.0.4,60.31614538616575,
345,4,3.4058062604536143e-05,1,0,Schematic,ideal,2019_Mar_17_1117,Face-Threshold,3.0.4,60.31614538616575,
346,4,0,0,0,Schematic,ideal,2019_Mar_17_1117,Face-Threshold,3.0.4,60.31614538616575,
347,4,0.0009357621510134306,0,0,Schematic,ideal,2019_Mar_17_1117,Face-Threshold,3.0.4,60.31614538616575,
348,4,0.0030724312935053733,0,0,Schematic,ideal,2019_Mar_17_1117,Face-Threshold,3.0.4,60.31614538616575,
349,4,0.0051368777575503954,0,0,Schematic,ideal,2019_Mar_17_1117,Face-Threshold,3.0.4,60.31614538616575,
350,4,0.0073176610120394,1,0,Schematic,ideal,2019_Mar_17_1117,Face-Threshold,3.0.4,60.31614538616575,
351,4,0.006057153446309249,1,0,Schematic,ideal,2019_Mar_17_1117,Face-Threshold,3.0.4,60.31614538616575,
352,4,0.004792869643043263,0,0,Schematic,ideal,2019_Mar_17_1117,Face-Threshold,3.0.4,60.31614538616575,
353,4,0.006793590681803685,1,0,Schematic,ideal,2019_Mar_17_1117,Face-Threshold,3.0.4,60.31614538616575,
354,4,0.00554198354152835,1,0,Schematic,ideal,2019_Mar_17_1117,Face-Threshold,3.0.4,60.31614538616575,
355,4,0.004284753705498745,1,0,Schematic,ideal,2019_Mar_17_1117,Face-Threshold,3.0.4,60.31614538616575,
356,4,0.003069933769699329,1,0,Schematic,ideal,2019_Mar_17_1117,Face-Threshold,3.0.4,60.31614538616575,
357,4,0.0018409077549090824,1,0,Schematic,ideal,2019_Mar_17_1117,Face-Threshold,3.0.4,60.31614538616575,
358,4,0.0005934995639130247,1,0,Schematic,ideal,2019_Mar_17_1117,Face-Threshold,3.0.4,60.31614538616575,
359,4,0,0,0,Schematic,ideal,2019_Mar_17_1117,Face-Threshold,3.0.4,60.31614538616575,
360,4,0.001451110083082574,0,0,Schematic,ideal,2019_Mar_17_1117,Face-Threshold,3.0.4,60.31614538616575,
361,4,0.003493589510604689,1,0,Schematic,ideal,2019_Mar_17_1117,Face-Threshold,3.0.4,60.31614538616575,
362,4,0.0022874627037066664,1,0,Schematic,ideal,2019_Mar_17_1117,Face-Threshold,3.0.4,60.31614538616575,
363,4,0.0010647337005572632,0,0,Schematic,ideal,2019_Mar_17_1117,Face-Threshold,3.0.4,60.31614538616575,
364,4,0.0031043306108403668,1,0,Schematic,ideal,2019_Mar_17_1117,Face-Threshold,3.0.4,60.31614538616575,
365,4,0.001901837100318493,0,0,Schematic,ideal,2019_Mar_17_1117,Face-Threshold,3.0.4,60.31614538616575,
366,4,0.003903381468975009,1,0,Schematic,ideal,2019_Mar_17_1117,Face-Threshold,3.0.4,60.31614538616575,
367,4,0.002718991612435384,1,0,Schematic,ideal,2019_Mar_17_1117,Face-Threshold,3.0.4,60.31614538616575,
368,4,0.0015196762564371746,1,0,Schematic,ideal,2019_Mar_17_1117,Face-Threshold,3.0.4,60.31614538616575,
369,4,0.00030145928067726313,1,0,Schematic,ideal,2019_Mar_17_1117,Face-Threshold,3.0.4,60.31614538616575,
370,4,0,1,0,Schematic,ideal,2019_Mar_17_1117,Face-Threshold,3.0.4,60.31614538616575,
371,4,0,0,0,Schematic,ideal,2019_Mar_17_1117,Face-Threshold,3.0.4,60.31614538616575,
372,4,0,1,0,Schematic,ideal,2019_Mar_17_1117,Face-Threshold,3.0.4,60.31614538616575,
373,4,0,0,0,Schematic,ideal,2019_Mar_17_1117,Face-Threshold,3.0.4,60.31614538616575,
374,4,0.0007649701278775178,1,0,Schematic,ideal,2019_Mar_17_1117,Face-Threshold,3.0.4,60.31614538616575,
375,4,0,1,0,Schematic,ideal,2019_Mar_17_1117,Face-Threshold,3.0.4,60.31614538616575,
376,4,0,1,0,Schematic,ideal,2019_Mar_17_1117,Face-Threshold,3.0.4,60.31614538616575,
377,4,0,0,0,Schematic,ideal,2019_Mar_17_1117,Face-Threshold,3.0.4,60.31614538616575,
378,4,0,0,0,Schematic,ideal,2019_Mar_17_1117,Face-Threshold,3.0.4,60.31614538616575,
379,4,0.0012127395016381937,0,0,Schematic,ideal,2019_Mar_17_1117,Face-Threshold,3.0.4,60.31614538616575,
380,4,0.0031661001301468983,1,0,Schematic,ideal,2019_Mar_17_1117,Face-Threshold,3.0.4,60.31614538616575,
381,4,0.0020133654065079276,1,0,Schematic,ideal,2019_Mar_17_1117,Face-Threshold,3.0.4,60.31614538616575,
382,4,0.0008439956111027103,0,0,Schematic,ideal,2019_Mar_17_1117,Face-Threshold,3.0.4,60.31614538616575,
383,4,0.0027955506423875676,0,0,Schematic,ideal,2019_Mar_17_1117,Face-Threshold,3.0.4,60.31614538616575,
384,4,0.004681723394841242,1,0,Schematic,ideal,2019_Mar_17_1117,Face-Threshold,3.0.4,60.31614538616575,
385,4,0.0035608207365631084,0,0,Schematic,ideal,2019_Mar_17_1117,Face-Threshold,3.0.4,60.31614538616575,
386,4,0.005418298939785959,1,0,Schematic,ideal,2019_Mar_17_1117,Face-Threshold,3.0.4,60.31614538616575,
387,4,0.004262343397238799,1,0,Schematic,ideal,2019_Mar_17_1117,Face-Threshold,3.0.4,60.31614538616575,
388,4,0.0031454000176159846,1,0,Schematic,ideal,2019_Mar_17_1117,Face-Threshold,3.0.4,60.31614538616575,
389,4,0.002015727119901556,1,0,Schematic,ideal,2019_Mar_17_1117,Face-Threshold,3.0.4,60.31614538616575,
390,4,0.0008697846944719645,0,0,Schematic,ideal,2019_Mar_17_1117,Face-Threshold,3.0.4,60.31614538616575,
391,4,0.0027820719871533006,0,0,Schematic,ideal,2019_Mar_17_1117,Face-Threshold,3.0.4,60.31614538616575,
392,4,0.004630764353754091,0,0,Schematic,ideal,2019_Mar_17_1117,Face-Threshold,3.0.4,60.31614538616575,
393,4,0.006432951070500181,1,0,Schematic,ideal,2019_Mar_17_1117,Face-Threshold,3.0.4,60.31614538616575,
394,4,0.005305562924255602,1,0,Schematic,ideal,2019_Mar_17_1117,Face-Threshold,3.0.4,60.31614538616575,
395,4,0.00417241403596158,1,0,Schematic,ideal,2019_Mar_17_1117,Face-Threshold,3.0.4,60.31614538616575,
396,4,0.003077229539475368,1,0,Schematic,ideal,2019_Mar_17_1117,Face-Threshold,3.0.4,60.31614538616575,
397,4,0.0019693857675028292,0,0,Schematic,ideal,2019_Mar_17_1117,Face-Threshold,3.0.4,60.31614538616575,
398,4,0.0038128950134588835,0,0,Schematic,ideal,2019_Mar_17_1117,Face-Threshold,3.0.4,60.31614538616575,
399,4,0.00560378382690041,1,0,Schematic,ideal,2019_Mar_17_1117,Face-Threshold,3.0.4,60.31614538616575,
400,4,0.004487692149966083,1,0,Schematic,ideal,2019_Mar_17_1117,Face-Threshold,3.0.4,60.31614538616575,
401,4,0.0034100407558991797,1,0,Schematic,ideal,2019_Mar_17_1117,Face-Threshold,3.0.4,60.31614538616575,
402,4,0.002320916064663836,1,0,Schematic,ideal,2019_Mar_17_1117,Face-Threshold,3.0.4,60.31614538616575,
403,4,0.0012170206323984245,0,0,Schematic,ideal,2019_Mar_17_1117,Face-Threshold,3.0.4,60.31614538616575,
404,4,0.003057465641656709,1,0,Schematic,ideal,2019_Mar_17_1117,Face-Threshold,3.0.4,60.31614538616575,
405,4,0.001970884319190902,0,0,Schematic,ideal,2019_Mar_17_1117,Face-Threshold,3.0.4,60.31614538616575,
406,4,0.0037789653122482503,1,0,Schematic,ideal,2019_Mar_17_1117,Face-Threshold,3.0.4,60.31614538616575,
407,4,0.002707969278974598,0,0,Schematic,ideal,2019_Mar_17_1117,Face-Threshold,3.0.4,60.31614538616575,
408,4,0.004486679630119339,0,0,Schematic,ideal,2019_Mar_17_1117,Face-Threshold,3.0.4,60.31614538616575,
409,4,0.006220536686675104,1,0,Schematic,ideal,2019_Mar_17_1117,Face-Threshold,3.0.4,60.31614538616575,
410,4,0.005136347331122948,0,0,Schematic,ideal,2019_Mar_17_1117,Face-Threshold,3.0.4,60.31614538616575,
411,4,0.006992505141077132,1,0,Schematic,ideal,2019_Mar_17_1117,Face-Threshold,3.0.4,60.31614538616575,
412,4,0.005918461591367163,1,0,Schematic,ideal,2019_Mar_17_1117,Face-Threshold,3.0.4,60.31614538616575,
413,4,0.00484088480389383,0,0,Schematic,ideal,2019_Mar_17_1117,Face-Threshold,3.0.4,60.31614538616575,
414,4,0.0065456212241930545,1,0,Schematic,ideal,2019_Mar_17_1117,Face-Threshold,3.0.4,60.31614538616575,
415,4,0.00547774476740831,1,0,Schematic,ideal,2019_Mar_17_1117,Face-Threshold,3.0.4,60.31614538616575,
416,4,0.004404983607887658,0,0,Schematic,ideal,2019_Mar_17_1117,Face-Threshold,3.0.4,60.31614538616575,
417,4,0.00610435665445952,1,0,Schematic,ideal,2019_Mar_17_1117,Face-Threshold,3.0.4,60.31614538616575,
418,4,0.005042003403855355,1,0,Schematic,ideal,2019_Mar_17_1117,Face-Threshold,3.0.4,60.31614538616575,
419,4,0.003973446511278733,1,0,Schematic,ideal,2019_Mar_17_1117,Face-Threshold,3.0.4,60.31614538616575,
420,4,0.0029401238993077006,0,0,Schematic,ideal,2019_Mar_17_1117,Face-Threshold,3.0.4,60.31614538616575,
421,4,0.004655158697241146,1,0,Schematic,ideal,2019_Mar_17_1117,Face-Threshold,3.0.4,60.31614538616575,
422,4,0.0036346727824673186,1,0,Schematic,ideal,2019_Mar_17_1117,Face-Threshold,3.0.4,60.31614538616575,
423,4,0.002603999992888406,0,0,Schematic,ideal,2019_Mar_17_1117,Face-Threshold,3.0.4,60.31614538616575,
424,4,0.004316142526387179,0,0,Schematic,ideal,2019_Mar_17_1117,Face-Threshold,3.0.4,60.31614538616575,
425,4,0.005984767276777492,1,0,Schematic,ideal,2019_Mar_17_1117,Face-Threshold,3.0.4,60.31614538616575,
426,4,0.004941948036927046,1,0,Schematic,ideal,2019_Mar_17_1117,Face-Threshold,3.0.4,60.31614538616575,
427,4,0.003936508860234056,1,0,Schematic,ideal,2019_Mar_17_1117,Face-Threshold,3.0.4,60.31614538616575,
428,4,0.0029218749575231073,1,0,Schematic,ideal,2019_Mar_17_1117,Face-Threshold,3.0.4,60.31614538616575,
429,4,0.0018951727084877135,0,0,Schematic,ideal,2019_Mar_17_1117,Face-Threshold,3.0.4,60.31614538616575,
430,4,0.0036038425439046673,1,0,Schematic,ideal,2019_Mar_17_1117,Face-Threshold,3.0.4,60.31614538616575,
431,4,0.0025916796971560685,0,0,Schematic,ideal,2019_Mar_17_1117,Face-Threshold,3.0.4,60.31614538616575,
432,4,0.004273093884448187,1,0,Schematic,ideal,2019_Mar_17_1117,Face-Threshold,3.0.4,60.31614538616575,
433,4,0.003273997333337997,1,0,Schematic,ideal,2019_Mar_17_1117,Face-Threshold,3.0.4,60.31614538616575,
434,4,0.0022639778010513645,1,0,Schematic,ideal,2019_Mar_17_1117,Face-Threshold,3.0.4,60.31614538616575,
435,4,0.0012401923031037931,0,0,Schematic,ideal,2019_Mar_17_1117,Face-Threshold,3.0.4,60.31614538616575,
436,4,0.0029468265065199506,0,0,Schematic,ideal,2019_Mar_17_1117,Face-Threshold,3.0.4,60.31614538616575,
437,4,0.004600533801175921,1,0,Schematic,ideal,2019_Mar_17_1117,Face-Threshold,3.0.4,60.31614538616575,
438,4,0.0036162779215574425,1,0,Schematic,ideal,2019_Mar_17_1117,Face-Threshold,3.0.4,60.31614538616575,
439,4,0.0026221882870242075,1,0,Schematic,ideal,2019_Mar_17_1117,Face-Threshold,3.0.4,60.31614538616575,
440,4,0.001615506662795807,1,0,Schematic,ideal,2019_Mar_17_1117,Face-Threshold,3.0.4,60.31614538616575,
441,4,0.0005934136358081155,1,0,Schematic,ideal,2019_Mar_17_1117,Face-Threshold,3.0.4,60.31614538616575,
442,4,0,0,0,Schematic,ideal,2019_Mar_17_1117,Face-Threshold,3.0.4,60.31614538616575,
443,4,0.0012944747345005059,0,0,Schematic,ideal,2019_Mar_17_1117,Face-Threshold,3.0.4,60.31614538616575,
444,4,0.002970312768426464,1,0,Schematic,ideal,2019_Mar_17_1117,Face-Threshold,3.0.4,60.31614538616575,
445,4,0.0019799658463348635,1,0,Schematic,ideal,2019_Mar_17_1117,Face-Threshold,3.0.4,60.31614538616575,
446,4,0.0009754103690329807,0,0,Schematic,ideal,2019_Mar_17_1117,Face-Threshold,3.0.4,60.31614538616575,
447,4,0.0026510499166612633,1,0,Schematic,ideal,2019_Mar_17_1117,Face-Threshold,3.0.4,60.31614538616575,
448,4,0.001662120676401202,1,0,Schematic,ideal,2019_Mar_17_1117,Face-Threshold,3.0.4,60.31614538616575,
449,4,0.0006581923108190391,0,0,Schematic,ideal,2019_Mar_17_1117,Face-Threshold,3.0.4,60.31614538616575,
450,4,0.0023340897357043144,0,0,Schematic,ideal,2019_Mar_17_1117,Face-Threshold,3.0.4,60.31614538616575,
451,4,0.003954349930023748,0,0,Schematic,ideal,2019_Mar_17_1117,Face-Threshold,3.0.4,60.31614538616575,
452,4,0.005532157595855458,1,0,Schematic,ideal,2019_Mar_17_1117,Face-Threshold,3.0.4,60.31614538616575,
453,4,0.004547407733820286,1,0,Schematic,ideal,2019_Mar_17_1117,Face-Threshold,3.0.4,60.31614538616575,
454,4,0.0035968678794996434,1,0,Schematic,ideal,2019_Mar_17_1117,Face-Threshold,3.0.4,60.31614538616575,
455,4,0.0026368189612926973,0,0,Schematic,ideal,2019_Mar_17_1117,Face-Threshold,3.0.4,60.31614538616575,
456,4,0.0042313761027870656,0,0,Schematic,ideal,2019_Mar_17_1117,Face-Threshold,3.0.4,60.31614538616575,
457,4,0.005786335199185144,1,0,Schematic,ideal,2019_Mar_17_1117,Face-Threshold,3.0.4,60.31614538616575,
458,4,0.004814501523719594,1,0,Schematic,ideal,2019_Mar_17_1117,Face-Threshold,3.0.4,60.31614538616575,
459,4,0.0038772090293866524,1,0,Schematic,ideal,2019_Mar_17_1117,Face-Threshold,3.0.4,60.31614538616575,
460,4,0.0029312689802240555,0,0,Schematic,ideal,2019_Mar_17_1117,Face-Threshold,3.0.4,60.31614538616575,
461,4,0.004501152815127529,0,0,Schematic,ideal,2019_Mar_17_1117,Face-Threshold,3.0.4,60.31614538616575,
462,4,0.006034157449186062,1,0,Schematic,ideal,2019_Mar_17_1117,Face-Threshold,3.0.4,60.31614538616575,
463,4,0.005074746621852033,1,0,Schematic,ideal,2019_Mar_17_1117,Face-Threshold,3.0.4,60.31614538616575,
464,4,0.004109896466352847,1,0,Schematic,ideal,2019_Mar_17_1117,Face-Threshold,3.0.4,60.31614538616575,
465,4,0.003177343565975599,1,0,Schematic,ideal,2019_Mar_17_1117,Face-Threshold,3.0.4,60.31614538616575,
466,4,0.002234425081941882,0,0,Schematic,ideal,2019_Mar_17_1117,Face-Threshold,3.0.4,60.31614538616575,
467,4,0.0038021376359163583,0,0,Schematic,ideal,2019_Mar_17_1117,Face-Threshold,3.0.4,60.31614538616575,
468,4,0.005328435335364479,1,0,Schematic,ideal,2019_Mar_17_1117,Face-Threshold,3.0.4,60.31614538616575,
469,4,0.0043763160957665526,0,0,Schematic,ideal,2019_Mar_17_1117,Face-Threshold,3.0.4,60.31614538616575,
470,4,0.00588452527676725,1,0,Schematic,ideal,2019_Mar_17_1117,Face-Threshold,3.0.4,60.31614538616575,
471,4,0.004941094723088235,1,0,Schematic,ideal,2019_Mar_17_1117,Face-Threshold,3.0.4,60.31614538616575,
472,4,0.00403157767448703,1,0,Schematic,ideal,2019_Mar_17_1117,Face-Threshold,3.0.4,60.31614538616575,
473,4,0.003114082437982557,1,0,Schematic,ideal,2019_Mar_17_1117,Face-Threshold,3.0.4,60.31614538616575,
474,4,0.0021862495818821825,1,0,Schematic,ideal,2019_Mar_17_1117,Face-Threshold,3.0.4,60.31614538616575,
475,4,0.0012456729895122254,1,0,Schematic,ideal,2019_Mar_17_1117,Face-Threshold,3.0.4,60.31614538616575,
476,4,0.0002898878514213665,1,0,Schematic,ideal,2019_Mar_17_1117,Face-Threshold,3.0.4,60.31614538616575,
477,4,0,1,0,Schematic,ideal,2019_Mar_17_1117,Face-Threshold,3.0.4,60.31614538616575,
478,4,0,1,0,Schematic,ideal,2019_Mar_17_1117,Face-Threshold,3.0.4,60.31614538616575,
479,4,0,1,0,Schematic,ideal,2019_Mar_17_1117,Face-Threshold,3.0.4,60.31614538616575,
480,4,0,0,0,Schematic,ideal,2019_Mar_17_1117,Face-Threshold,3.0.4,60.31614538616575,
481,4,0,1,0,Schematic,ideal,2019_Mar_17_1117,Face-Threshold,3.0.4,60.31614538616575,
482,4,0,1,0,Schematic,ideal,2019_Mar_17_1117,Face-Threshold,3.0.4,60.31614538616575,
483,4,0,1,0,Schematic,ideal,2019_Mar_17_1117,Face-Threshold,3.0.4,60.31614538616575,
484,4,0,1,0,Schematic,ideal,2019_Mar_17_1117,Face-Threshold,3.0.4,60.31614538616575,
485,4,0,1,0,Schematic,ideal,2019_Mar_17_1117,Face-Threshold,3.0.4,60.31614538616575,
486,4,0,1,0,Schematic,ideal,2019_Mar_17_1117,Face-Threshold,3.0.4,60.31614538616575,
487,4,0,1,0,Schematic,ideal,2019_Mar_17_1117,Face-Threshold,3.0.4,60.31614538616575,
488,4,0,0,0,Schematic,ideal,2019_Mar_17_1117,Face-Threshold,3.0.4,60.31614538616575,
489,4,0,0,0,Schematic,ideal,2019_Mar_17_1117,Face-Threshold,3.0.4,60.31614538616575,
490,4,0,0,0,Schematic,ideal,2019_Mar_17_1117,Face-Threshold,3.0.4,60.31614538616575,
491,4,0,0,0,Schematic,ideal,2019_Mar_17_1117,Face-Threshold,3.0.4,60.31614538616575,
492,4,0,0,0,Schematic,ideal,2019_Mar_17_1117,Face-Threshold,3.0.4,60.31614538616575,
493,4,0,1,0,Schematic,ideal,2019_Mar_17_1117,Face-Threshold,3.0.4,60.31614538616575,
494,4,0,0,0,Schematic,ideal,2019_Mar_17_1117,Face-Threshold,3.0.4,60.31614538616575,
495,4,0.00012288442459451598,0,0,Schematic,ideal,2019_Mar_17_1117,Face-Threshold,3.0.4,60.31614538616575,
496,4,0.0016688177638403134,0,0,Schematic,ideal,2019_Mar_17_1117,Face-Threshold,3.0.4,60.31614538616575,
497,4,0.003161055423675063,0,0,Schematic,ideal,2019_Mar_17_1117,Face-Threshold,3.0.4,60.31614538616575,
498,4,0.0046108467408783604,1,0,Schematic,ideal,2019_Mar_17_1117,Face-Threshold,3.0.4,60.31614538616575,
499,4,0.0037464535591561487,1,0,Schematic,ideal,2019_Mar_17_1117,Face-Threshold,3.0.4,60.31614538616575,
500,4,0.0028738573953464575,0,0,Schematic,ideal,2019_Mar_17_1117,Face-Threshold,3.0.4,60.31614538616575,
501,4,0.004322106435411199,0,0,Schematic,ideal,2019_Mar_17_1117,Face-Threshold,3.0.4,60.31614538616575,
502,4,0.0057366662147552705,1,0,Schematic,ideal,2019_Mar_17_1117,Face-Threshold,3.0.4,60.31614538616575,
503,4,0.004851700834776929,1,0,Schematic,ideal,2019_Mar_17_1117,Face-Threshold,3.0.4,60.31614538616575,
504,4,0.003998374831340745,1,0,Schematic,ideal,2019_Mar_17_1117,Face-Threshold,3.0.4,60.31614538616575,
505,4,0.0031375498451344797,1,0,Schematic,ideal,2019_Mar_17_1117,Face-Threshold,3.0.4,60.31614538616575,
506,4,0.0022671438207378936,1,0,Schematic,ideal,2019_Mar_17_1117,Face-Threshold,3.0.4,60.31614538616575,
507,4,0.001385033660007584,0,0,Schematic,ideal,2019_Mar_17_1117,Face-Threshold,3.0.4,60.31614538616575,
508,4,0.0028546920361639527,1,0,Schematic,ideal,2019_Mar_17_1117,Face-Threshold,3.0.4,60.31614538616575,
509,4,0.0019851342223142776,1,0,Schematic,ideal,2019_Mar_17_1117,Face-Threshold,3.0.4,60.31614538616575,
510,4,0.0011032473224765749,1,0,Schematic,ideal,2019_Mar_17_1117,Face-Threshold,3.0.4,60.31614538616575,
511,4,0.00020686015929582968,0,0,Schematic,ideal,2019_Mar_17_1117,Face-Threshold,3.0.4,60.31614538616575,
512,4,0.001704623093640778,0,0,Schematic,ideal,2019_Mar_17_1117,Face-Threshold,3.0.4,60.31614538616575,
513,4,0.0031511458135787818,0,0,Schematic,ideal,2019_Mar_17_1117,Face-Threshold,3.0.4,60.31614538616575,
514,4,0.004556999043391852,0,0,Schematic,ideal,2019_Mar_17_1117,Face-Threshold,3.0.4,60.31614538616575,
515,4,0.005932049725610955,1,0,Schematic,ideal,2019_Mar_17_1117,Face-Threshold,3.0.4,60.31614538616575,
516,4,0.005070707249834883,1,0,Schematic,ideal,2019_Mar_17_1117,Face-Threshold,3.0.4,60.31614538616575,
517,4,0.004204546215271998,1,0,Schematic,ideal,2019_Mar_17_1117,Face-Threshold,3.0.4,60.31614538616575,
518,4,0.0033677163227053275,1,0,Schematic,ideal,2019_Mar_17_1117,Face-Threshold,3.0.4,60.31614538616575,
519,4,0.0025221169731901028,1,0,Schematic,ideal,2019_Mar_17_1117,Face-Threshold,3.0.4,60.31614538616575,
520,4,0.001665740762598622,1,0,Schematic,ideal,2019_Mar_17_1117,Face-Threshold,3.0.4,60.31614538616575,
521,4,0.0007965345322806239,0,0,Schematic,ideal,2019_Mar_17_1117,Face-Threshold,3.0.4,60.31614538616575,
522,4,0.0022467659368408666,1,0,Schematic,ideal,2019_Mar_17_1117,Face-Threshold,3.0.4,60.31614538616575,
523,4,0.0013906890066273658,0,0,Schematic,ideal,2019_Mar_17_1117,Face-Threshold,3.0.4,60.31614538616575,
524,4,0.002816900426455604,1,0,Schematic,ideal,2019_Mar_17_1117,Face-Threshold,3.0.4,60.31614538616575,
525,4,0.001972875609148106,1,0,Schematic,ideal,2019_Mar_17_1117,Face-Threshold,3.0.4,60.31614538616575,
526,4,0.0011168872700976773,0,0,Schematic,ideal,2019_Mar_17_1117,Face-Threshold,3.0.4,60.31614538616575,
527,4,0.0025439175730688213,1,0,Schematic,ideal,2019_Mar_17_1117,Face-Threshold,3.0.4,60.31614538616575,
528,4,0.0017003583022575652,0,0,Schematic,ideal,2019_Mar_17_1117,Face-Threshold,3.0.4,60.31614538616575,
529,4,0.0031045995843480556,1,0,Schematic,ideal,2019_Mar_17_1117,Face-Threshold,3.0.4,60.31614538616575,
530,4,0.0022724310810264825,0,0,Schematic,ideal,2019_Mar_17_1117,Face-Threshold,3.0.4,60.31614538616575,
531,4,0.003655670508630804,1,0,Schematic,ideal,2019_Mar_17_1117,Face-Threshold,3.0.4,60.31614538616575,
532,4,0.002833896107756362,1,0,Schematic,ideal,2019_Mar_17_1117,Face-Threshold,3.0.4,60.31614538616575,
533,4,0.002002353730091888,1,0,Schematic,ideal,2019_Mar_17_1117,Face-Threshold,3.0.4,60.31614538616575,
534,4,0.0011591035036375708,1,0,Schematic,ideal,2019_Mar_17_1117,Face-Threshold,3.0.4,60.31614538616575,
535,4,0.00030215648399462003,1,0,Schematic,ideal,2019_Mar_17_1117,Face-Threshold,3.0.4,60.31614538616575,
536,4,0,0,0,Schematic,ideal,2019_Mar_17_1117,Face-Threshold,3.0.4,60.31614538616575,
537,4,0.0008902018372470288,0,0,Schematic,ideal,2019_Mar_17_1117,Face-Threshold,3.0.4,60.31614538616575,
538,4,0.002296995505538524,1,0,Schematic,ideal,2019_Mar_17_1117,Face-Threshold,3.0.4,60.31614538616575,
539,4,0.0014660890477317112,0,0,Schematic,ideal,2019_Mar_17_1117,Face-Threshold,3.0.4,60.31614538616575,
540,4,0.0028500534156524204,1,0,Schematic,ideal,2019_Mar_17_1117,Face-Threshold,3.0.4,60.31614538616575,
541,4,0.002030627151402953,1,0,Schematic,ideal,2019_Mar_17_1117,Face-Threshold,3.0.4,60.31614538616575,
542,4,0.0011997384522320909,0,0,Schematic,ideal,2019_Mar_17_1117,Face-Threshold,3.0.4,60.31614538616575,
543,4,0.0025845872049213847,0,0,Schematic,ideal,2019_Mar_17_1117,Face-Threshold,3.0.4,60.31614538616575,
544,4,0.003928047606677143,1,0,Schematic,ideal,2019_Mar_17_1117,Face-Threshold,3.0.4,60.31614538616575,
545,4,0.0031287049270055656,0,0,Schematic,ideal,2019_Mar_17_1117,Face-Threshold,3.0.4,60.31614538616575,
546,4,0.004454349861286233,1,0,Schematic,ideal,2019_Mar_17_1117,Face-Threshold,3.0.4,60.31614538616575,
547,4,0.00366368316017035,0,0,Schematic,ideal,2019_Mar_17_1117,Face-Threshold,3.0.4,60.31614538616575,
548,4,0.004973051481719726,1,0,Schematic,ideal,2019_Mar_17_1117,Face-Threshold,3.0.4,60.31614538616575,
549,4,0.004190194167133732,1,0,Schematic,ideal,2019_Mar_17_1117,Face-Threshold,3.0.4,60.31614538616575,
550,4,0.003400948354173816,0,0,Schematic,ideal,2019_Mar_17_1117,Face-Threshold,3.0.4,60.31614538616575,
551,4,0.004708881774981688,0,0,Schematic,ideal,2019_Mar_17_1117,Face-Threshold,3.0.4,60.31614538616575,
552,4,0.0059900844778779105,1,0,Schematic,ideal,2019_Mar_17_1117,Face-Threshold,3.0.4,60.31614538616575,
553,4,0.005186629861464842,0,0,Schematic,ideal,2019_Mar_17_1117,Face-Threshold,3.0.4,60.31614538616575,
554,4,0.00656164154378952,1,0,Schematic,ideal,2019_Mar_17_1117,Face-Threshold,3.0.4,60.31614538616575,
555,4,0.005764393876122653,0,0,Schematic,ideal,2019_Mar_17_1117,Face-Threshold,3.0.4,60.31614538616575,
556,4,0.007126468759022286,1,0,Schematic,ideal,2019_Mar_17_1117,Face-Threshold,3.0.4,60.31614538616575,
557,4,0.00633439593217916,1,0,Schematic,ideal,2019_Mar_17_1117,Face-Threshold,3.0.4,60.31614538616575,
558,4,0.005540898909582925,1,0,Schematic,ideal,2019_Mar_17_1117,Face-Threshold,3.0.4,60.31614538616575,
559,4,0.004744113144750983,1,0,Schematic,ideal,2019_Mar_17_1117,Face-Threshold,3.0.4,60.31614538616575,
560,4,0.0039756506102650024,1,0,Schematic,ideal,2019_Mar_17_1117,Face-Threshold,3.0.4,60.31614538616575,
561,4,0.0032004796259775814,1,0,Schematic,ideal,2019_Mar_17_1117,Face-Threshold,3.0.4,60.31614538616575,
562,4,0.002416904573668166,1,0,Schematic,ideal,2019_Mar_17_1117,Face-Threshold,3.0.4,60.31614538616575,
563,4,0.001623196862245102,0,0,Schematic,ideal,2019_Mar_17_1117,Face-Threshold,3.0.4,60.31614538616575,
564,4,0.002944609511057128,0,0,Schematic,ideal,2019_Mar_17_1117,Face-Threshold,3.0.4,60.31614538616575,
565,4,0.004229113495085091,0,0,Schematic,ideal,2019_Mar_17_1117,Face-Threshold,3.0.4,60.31614538616575,
566,4,0.005484971905689751,0,0,Schematic,ideal,2019_Mar_17_1117,Face-Threshold,3.0.4,60.31614538616575,
567,4,0.006822926228199189,1,0,Schematic,ideal,2019_Mar_17_1117,Face-Threshold,3.0.4,60.31614538616575,
568,4,0.006045894707981336,1,0,Schematic,ideal,2019_Mar_17_1117,Face-Threshold,3.0.4,60.31614538616575,
569,4,0.005266816120559459,0,0,Schematic,ideal,2019_Mar_17_1117,Face-Threshold,3.0.4,60.31614538616575,
570,4,0.006599765902235266,0,0,Schematic,ideal,2019_Mar_17_1117,Face-Threshold,3.0.4,60.31614538616575,
571,4,0.007916325247486367,1,0,Schematic,ideal,2019_Mar_17_1117,Face-Threshold,3.0.4,60.31614538616575,
572,4,0.00714734719994764,0,0,Schematic,ideal,2019_Mar_17_1117,Face-Threshold,3.0.4,60.31614538616575,
573,4,0.008455709834496006,1,0,Schematic,ideal,2019_Mar_17_1117,Face-Threshold,3.0.4,60.31614538616575,
574,4,0.00768937116409435,1,0,Schematic,ideal,2019_Mar_17_1117,Face-Threshold,3.0.4,60.31614538616575,
575,4,0.006924765185196247,0,0,Schematic,ideal,2019_Mar_17_1117,Face-Threshold,3.0.4,60.31614538616575,
576,4,0.00822654368400244,1,0,Schematic,ideal,2019_Mar_17_1117,Face-Threshold,3.0.4,60.31614538616575,
577,4,0.007464900341010161,1,0,Schematic,ideal,2019_Mar_17_1117,Face-Threshold,3.0.4,60.31614538616575,
578,4,0.006704475713758928,1,0,Schematic,ideal,2019_Mar_17_1117,Face-Threshold,3.0.4,60.31614538616575,
579,4,0.0059435488621835675,1,0,Schematic,ideal,2019_Mar_17_1117,Face-Threshold,3.0.4,60.31614538616575,
580,4,0.005180400465054413,1,0,Schematic,ideal,2019_Mar_17_1117,Face-Threshold,3.0.4,60.31614538616575,
581,4,0.0044133051908525345,1,0,Schematic,ideal,2019_Mar_17_1117,Face-Threshold,3.0.4,60.31614538616575,
582,4,0.0036727550291947297,0,0,Schematic,ideal,2019_Mar_17_1117,Face-Threshold,3.0.4,60.31614538616575,
583,4,0.004899013614585168,1,0,Schematic,ideal,2019_Mar_17_1117,Face-Threshold,3.0.4,60.31614538616575,
584,4,0.004165565132331683,1,0,Schematic,ideal,2019_Mar_17_1117,Face-Threshold,3.0.4,60.31614538616575,
585,4,0.0034261336156397593,1,0,Schematic,ideal,2019_Mar_17_1117,Face-Threshold,3.0.4,60.31614538616575,
586,4,0.0026791723636143683,1,0,Schematic,ideal,2019_Mar_17_1117,Face-Threshold,3.0.4,60.31614538616575,
587,4,0.0019231063332456055,0,0,Schematic,ideal,2019_Mar_17_1117,Face-Threshold,3.0.4,60.31614538616575,
588,4,0.003180829655502704,1,0,Schematic,ideal,2019_Mar_17_1117,Face-Threshold,3.0.4,60.31614538616575,
589,4,0.002434331978236115,1,0,Schematic,ideal,2019_Mar_17_1117,Face-Threshold,3.0.4,60.31614538616575,
590,4,0.001678255745258983,0,0,Schematic,ideal,2019_Mar_17_1117,Face-Threshold,3.0.4,60.31614538616575,
591,4,0.002936771216702383,1,0,Schematic,ideal,2019_Mar_17_1117,Face-Threshold,3.0.4,60.31614538616575,
592,4,0.0021905672319531555,0,0,Schematic,ideal,2019_Mar_17_1117,Face-Threshold,3.0.4,60.31614538616575,
593,4,0.0034310207068547482,1,0,Schematic,ideal,2019_Mar_17_1117,Face-Threshold,3.0.4,60.31614538616575,
594,4,0.0026938881414587112,1,0,Schematic,ideal,2019_Mar_17_1117,Face-Threshold,3.0.4,60.31614538616575,
595,4,0.0019478109821702283,1,0,Schematic,ideal,2019_Mar_17_1117,Face-Threshold,3.0.4,60.31614538616575,
596,4,0.0011912207137086406,0,0,Schematic,ideal,2019_Mar_17_1117,Face-Threshold,3.0.4,60.31614538616575,
597,4,0.0024521119726397256,0,0,Schematic,ideal,2019_Mar_17_1117,Face-Threshold,3.0.4,60.31614538616575,
598,4,0.003675937152404274,1,0,Schematic,ideal,2019_Mar_17_1117,Face-Threshold,3.0.4,60.31614538616575,
599,4,0.0029478238186967376,1,0,Schematic,ideal,2019_Mar_17_1117,Face-Threshold,3.0.4,60.31614538616575,
600,4,0.0022113758832531527,0,0,Schematic,ideal,2019_Mar_17_1117,Face-Threshold,3.0.4,60.31614538616575,
601,4,0.003435526505553732,0,0,Schematic,ideal,2019_Mar_17_1117,Face-Threshold,3.0.4,60.31614538616575,
602,4,0.004628919250239505,0,0,Schematic,ideal,2019_Mar_17_1117,Face-Threshold,3.0.4,60.31614538616575,
603,4,0.005798662823603251,1,0,Schematic,ideal,2019_Mar_17_1117,Face-Threshold,3.0.4,60.31614538616575,
604,4,0.005065029508652508,1,0,Schematic,ideal,2019_Mar_17_1117,Face-Threshold,3.0.4,60.31614538616575,
605,4,0.004327380488694688,1,0,Schematic,ideal,2019_Mar_17_1117,Face-Threshold,3.0.4,60.31614538616575,
606,4,0.0036151023939265947,1,0,Schematic,ideal,2019_Mar_17_1117,Face-Threshold,3.0.4,60.31614538616575,
607,4,0.0028959663996991902,1,0,Schematic,ideal,2019_Mar_17_1117,Face-Threshold,3.0.4,60.31614538616575,
608,4,0.0021685094976118258,1,0,Schematic,ideal,2019_Mar_17_1117,Face-Threshold,3.0.4,60.31614538616575,
609,4,0.0014312379823941956,1,0,Schematic,ideal,2019_Mar_17_1117,Face-Threshold,3.0.4,60.31614538616575,
610,4,0.0006826215700955207,1,0,Schematic,ideal,2019_Mar_17_1117,Face-Threshold,3.0.4,60.31614538616575,
611,4,0,0,0,Schematic,ideal,2019_Mar_17_1117,Face-Threshold,3.0.4,60.31614538616575,
612,4,0.0011940542060464021,1,0,Schematic,ideal,2019_Mar_17_1117,Face-Threshold,3.0.4,60.31614538616575,
613,4,0.0004445805131237379,0,0,Schematic,ideal,2019_Mar_17_1117,Face-Threshold,3.0.4,60.31614538616575,
614,4,0.001695835664520473,1,0,Schematic,ideal,2019_Mar_17_1117,Face-Threshold,3.0.4,60.31614538616575,
615,4,0.0009575846938872368,1,0,Schematic,ideal,2019_Mar_17_1117,Face-Threshold,3.0.4,60.31614538616575,
616,4,0.0002071047289999295,1,0,Schematic,ideal,2019_Mar_17_1117,Face-Threshold,3.0.4,60.31614538616575,
617,4,0,1,0,Schematic,ideal,2019_Mar_17_1117,Face-Threshold,3.0.4,60.31614538616575,
618,4,0,1,0,Schematic,ideal,2019_Mar_17_1117,Face-Threshold,3.0.4,60.31614538616575,
619,4,0,0,0,Schematic,ideal,2019_Mar_17_1117,Face-Threshold,3.0.4,60.31614538616575,
620,4,0,1,0,Schematic,ideal,2019_Mar_17_1117,Face-Threshold,3.0.4,60.31614538616575,
621,4,0,1,0,Schematic,ideal,2019_Mar_17_1117,Face-Threshold,3.0.4,60.31614538616575,
622,4,0,0,0,Schematic,ideal,2019_Mar_17_1117,Face-Threshold,3.0.4,60.31614538616575,
623,4,0,0,0,Schematic,ideal,2019_Mar_17_1117,Face-Threshold,3.0.4,60.31614538616575,
624,4,0.0002518863417488859,0,0,Schematic,ideal,2019_Mar_17_1117,Face-Threshold,3.0.4,60.31614538616575,
625,4,0.0014892578165074943,0,0,Schematic,ideal,2019_Mar_17_1117,Face-Threshold,3.0.4,60.31614538616575,
626,4,0.0026859366827324815,1,0,Schematic,ideal,2019_Mar_17_1117,Face-Threshold,3.0.4,60.31614538616575,
627,4,0.001976752255247183,1,0,Schematic,ideal,2019_Mar_17_1117,Face-Threshold,3.0.4,60.31614538616575,
628,4,0.0012576721803809754,0,0,Schematic,ideal,2019_Mar_17_1117,Face-Threshold,3.0.4,60.31614538616575,
629,4,0.0024557745872249015,1,0,Schematic,ideal,2019_Mar_17_1117,Face-Threshold,3.0.4,60.31614538616575,
630,4,0.0017464203018453528,0,0,Schematic,ideal,2019_Mar_17_1117,Face-Threshold,3.0.4,60.31614538616575,
631,4,0.0029268686749653328,0,0,Schematic,ideal,2019_Mar_17_1117,Face-Threshold,3.0.4,60.31614538616575,
632,4,0.004075642634784826,1,0,Schematic,ideal,2019_Mar_17_1117,Face-Threshold,3.0.4,60.31614538616575,
633,4,0.0033905562180560067,1,0,Schematic,ideal,2019_Mar_17_1117,Face-Threshold,3.0.4,60.31614538616575,
634,4,0.002698489010914795,0,0,Schematic,ideal,2019_Mar_17_1117,Face-Threshold,3.0.4,60.31614538616575,
635,4,0.0038473381823445063,1,0,Schematic,ideal,2019_Mar_17_1117,Face-Threshold,3.0.4,60.31614538616575,
636,4,0.0031628831761641996,1,0,Schematic,ideal,2019_Mar_17_1117,Face-Threshold,3.0.4,60.31614538616575,
637,4,0.0024710358250779607,0,0,Schematic,ideal,2019_Mar_17_1117,Face-Threshold,3.0.4,60.31614538616575,
638,4,0.003620196869565051,1,0,Schematic,ideal,2019_Mar_17_1117,Face-Threshold,3.0.4,60.31614538616575,
639,4,0.0029362240327624467,0,0,Schematic,ideal,2019_Mar_17_1117,Face-Threshold,3.0.4,60.31614538616575,
640,4,0.0040709148624507585,1,0,Schematic,ideal,2019_Mar_17_1117,Face-Threshold,3.0.4,60.31614538616575,
641,4,0.003394157103208728,1,0,Schematic,ideal,2019_Mar_17_1117,Face-Threshold,3.0.4,60.31614538616575,
642,4,0.0027105197503315415,1,0,Schematic,ideal,2019_Mar_17_1117,Face-Threshold,3.0.4,60.31614538616575,
643,4,0.002018678252177164,1,0,Schematic,ideal,2019_Mar_17_1117,Face-Threshold,3.0.4,60.31614538616575,
644,4,0.0013172790922642008,1,0,Schematic,ideal,2019_Mar_17_1117,Face-Threshold,3.0.4,60.31614538616575,
645,4,0.0006049347194698185,0,0,Schematic,ideal,2019_Mar_17_1117,Face-Threshold,3.0.4,60.31614538616575,
646,4,0.0017936616473450684,0,0,Schematic,ideal,2019_Mar_17_1117,Face-Threshold,3.0.4,60.31614538616575,
647,4,0.0029451429105243343,1,0,Schematic,ideal,2019_Mar_17_1117,Face-Threshold,3.0.4,60.31614538616575,
648,4,0.0022617461358661606,0,0,Schematic,ideal,2019_Mar_17_1117,Face-Threshold,3.0.4,60.31614538616575,
649,4,0.0033974641990340837,1,0,Schematic,ideal,2019_Mar_17_1117,Face-Threshold,3.0.4,60.31614538616575,
650,4,0.0027220522034203665,1,0,Schematic,ideal,2019_Mar_17_1117,Face-Threshold,3.0.4,60.31614538616575,
651,4,0.0020385650908118502,1,0,Schematic,ideal,2019_Mar_17_1117,Face-Threshold,3.0.4,60.31614538616575,
652,4,0.0013456810386511253,0,0,Schematic,ideal,2019_Mar_17_1117,Face-Threshold,3.0.4,60.31614538616575,
653,4,0.0024998303744230843,1,0,Schematic,ideal,2019_Mar_17_1117,Face-Threshold,3.0.4,60.31614538616575,
654,4,0.0018161153817842224,0,0,Schematic,ideal,2019_Mar_17_1117,Face-Threshold,3.0.4,60.31614538616575,
655,4,0.0029536452578549643,1,0,Schematic,ideal,2019_Mar_17_1117,Face-Threshold,3.0.4,60.31614538616575,
656,4,0.0022784224154880905,0,0,Schematic,ideal,2019_Mar_17_1117,Face-Threshold,3.0.4,60.31614538616575,
657,4,0.0034004922096397827,1,0,Schematic,ideal,2019_Mar_17_1117,Face-Threshold,3.0.4,60.31614538616575,
658,4,0.002733108418391361,0,0,Schematic,ideal,2019_Mar_17_1117,Face-Threshold,3.0.4,60.31614538616575,
659,4,0.003840835008421639,0,0,Schematic,ideal,2019_Mar_17_1117,Face-Threshold,3.0.4,60.31614538616575,
660,4,0.0049236979143811865,0,0,Schematic,ideal,2019_Mar_17_1117,Face-Threshold,3.0.4,60.31614538616575,
661,4,0.005987537652886565,1,0,Schematic,ideal,2019_Mar_17_1117,Face-Threshold,3.0.4,60.31614538616575,
662,4,0.005319060019213728,1,0,Schematic,ideal,2019_Mar_17_1117,Face-Threshold,3.0.4,60.31614538616575,
663,4,0.004647482782322909,1,0,Schematic,ideal,2019_Mar_17_1117,Face-Threshold,3.0.4,60.31614538616575,
664,4,0.003999712800701938,1,0,Schematic,ideal,2019_Mar_17_1117,Face-Threshold,3.0.4,60.31614538616575,
665,4,0.00334645845721826,0,0,Schematic,ideal,2019_Mar_17_1117,Face-Threshold,3.0.4,60.31614538616575,
666,4,0.0044289550848597425,1,0,Schematic,ideal,2019_Mar_17_1117,Face-Threshold,3.0.4,60.31614538616575,
667,4,0.003782017066052079,1,0,Schematic,ideal,2019_Mar_17_1117,Face-Threshold,3.0.4,60.31614538616575,
668,4,0.003129217194633105,1,0,Schematic,ideal,2019_Mar_17_1117,Face-Threshold,3.0.4,60.31614538616575,
669,4,0.002469344058546652,1,0,Schematic,ideal,2019_Mar_17_1117,Face-Threshold,3.0.4,60.31614538616575,
670,4,0.0018011622652552295,1,0,Schematic,ideal,2019_Mar_17_1117,Face-Threshold,3.0.4,60.31614538616575,
671,4,0.0011234080059524532,0,0,Schematic,ideal,2019_Mar_17_1117,Face-Threshold,3.0.4,60.31614538616575,
672,4,0.002252933033229265,1,0,Schematic,ideal,2019_Mar_17_1117,Face-Threshold,3.0.4,60.31614538616575,
673,4,0.0015843269179562913,1,0,Schematic,ideal,2019_Mar_17_1117,Face-Threshold,3.0.4,60.31614538616575,
674,4,0.0009057758803570626,1,0,Schematic,ideal,2019_Mar_17_1117,Face-Threshold,3.0.4,60.31614538616575,
675,4,0.00021598109252585207,0,0,Schematic,ideal,2019_Mar_17_1117,Face-Threshold,3.0.4,60.31614538616575,
676,4,0.0013680643597971387,0,0,Schematic,ideal,2019_Mar_17_1117,Face-Threshold,3.0.4,60.31614538616575,
677,4,0.002482580101194898,0,0,Schematic,ideal,2019_Mar_17_1117,Face-Threshold,3.0.4,60.31614538616575,
678,4,0.003565841920994628,0,0,Schematic,ideal,2019_Mar_17_1117,Face-Threshold,3.0.4,60.31614538616575,
679,4,0.004623769830898905,1,0,Schematic,ideal,2019_Mar_17_1117,Face-Threshold,3.0.4,60.31614538616575,
680,4,0.003990830979865689,1,0,Schematic,ideal,2019_Mar_17_1117,Face-Threshold,3.0.4,60.31614538616575,
681,4,0.0033525352410981313,1,0,Schematic,ideal,2019_Mar_17_1117,Face-Threshold,3.0.4,60.31614538616575,
682,4,0.002707722703796378,1,0,Schematic,ideal,2019_Mar_17_1117,Face-Threshold,3.0.4,60.31614538616575,
683,4,0.0020552118005010556,1,0,Schematic,ideal,2019_Mar_17_1117,Face-Threshold,3.0.4,60.31614538616575,
684,4,0.0013937951507366764,1,0,Schematic,ideal,2019_Mar_17_1117,Face-Threshold,3.0.4,60.31614538616575,
685,4,0.0007222352871087412,0,0,Schematic,ideal,2019_Mar_17_1117,Face-Threshold,3.0.4,60.31614538616575,
686,4,0.0018424953216696904,1,0,Schematic,ideal,2019_Mar_17_1117,Face-Threshold,3.0.4,60.31614538616575,
687,4,0.0011803946597360726,1,0,Schematic,ideal,2019_Mar_17_1117,Face-Threshold,3.0.4,60.31614538616575,
688,4,0.0005077901409260011,1,0,Schematic,ideal,2019_Mar_17_1117,Face-Threshold,3.0.4,60.31614538616575,
689,4,0,1,0,Schematic,ideal,2019_Mar_17_1117,Face-Threshold,3.0.4,60.31614538616575,
690,4,0,0,0,Schematic,ideal,2019_Mar_17_1117,Face-Threshold,3.0.4,60.31614538616575,
691,4,0.0002936851777624039,0,0,Schematic,ideal,2019_Mar_17_1117,Face-Threshold,3.0.4,60.31614538616575,
692,4,0.001418758672232845,1,0,Schematic,ideal,2019_Mar_17_1117,Face-Threshold,3.0.4,60.31614538616575,
693,4,0.0007549275861677418,1,0,Schematic,ideal,2019_Mar_17_1117,Face-Threshold,3.0.4,60.31614538616575,
694,4,7.987631736466883e-05,0,0,Schematic,ideal,2019_Mar_17_1117,Face-Threshold,3.0.4,60.31614538616575,
695,4,0.0012076456012541925,1,0,Schematic,ideal,2019_Mar_17_1117,Face-Threshold,3.0.4,60.31614538616575,
696,4,0.000542770995363373,1,0,Schematic,ideal,2019_Mar_17_1117,Face-Threshold,3.0.4,60.31614538616575,
697,4,0,1,0,Schematic,ideal,2019_Mar_17_1117,Face-Threshold,3.0.4,60.31614538616575,
698,4,0,0,0,Schematic,ideal,2019_Mar_17_1117,Face-Threshold,3.0.4,60.31614538616575,
699,4,0.0003309403384378906,0,0,Schematic,ideal,2019_Mar_17_1117,Face-Threshold,3.0.4,60.31614538616575,
700,4,0.0014429843672503218,1,0,Schematic,ideal,2019_Mar_17_1117,Face-Threshold,3.0.4,60.31614538616575,
701,4,0.0007867040758809951,1,0,Schematic,ideal,2019_Mar_17_1117,Face-Threshold,3.0.4,60.31614538616575,
702,4,0.00011939252707204862,1,0,Schematic,ideal,2019_Mar_17_1117,Face-Threshold,3.0.4,60.31614538616575,
703,4,0,0,0,Schematic,ideal,2019_Mar_17_1117,Face-Threshold,3.0.4,60.31614538616575,
704,4,0.0005767876688960727,0,0,Schematic,ideal,2019_Mar_17_1117,Face-Threshold,3.0.4,60.31614538616575,
705,4,0.001673636922377153,0,0,Schematic,ideal,2019_Mar_17_1117,Face-Threshold,3.0.4,60.31614538616575,
706,4,0.002736486182589981,0,0,Schematic,ideal,2019_Mar_17_1117,Face-Threshold,3.0.4,60.31614538616575,
707,4,0.003771071518627156,1,0,Schematic,ideal,2019_Mar_17_1117,Face-Threshold,3.0.4,60.31614538616575,
708,4,0.00315427143947955,0,0,Schematic,ideal,2019_Mar_17_1117,Face-Threshold,3.0.4,60.31614538616575,
709,4,0.004176814174372101,0,0,Schematic,ideal,2019_Mar_17_1117,Face-Threshold,3.0.4,60.31614538616575,
710,4,0.00517862248601092,1,0,Schematic,ideal,2019_Mar_17_1117,Face-Threshold,3.0.4,60.31614538616575,
711,4,0.004551169452702619,0,0,Schematic,ideal,2019_Mar_17_1117,Face-Threshold,3.0.4,60.31614538616575,
712,4,0.005544088903466637,1,0,Schematic,ideal,2019_Mar_17_1117,Face-Threshold,3.0.4,60.31614538616575,
713,4,0.004921073691215971,1,0,Schematic,ideal,2019_Mar_17_1117,Face-Threshold,3.0.4,60.31614538616575,
714,4,0.0043207080348365845,1,0,Schematic,ideal,2019_Mar_17_1117,Face-Threshold,3.0.4,60.31614538616575,
715,4,0.0037158448228171714,0,0,Schematic,ideal,2019_Mar_17_1117,Face-Threshold,3.0.4,60.31614538616575,
716,4,0.0047170719494386,1,0,Schematic,ideal,2019_Mar_17_1117,Face-Threshold,3.0.4,60.31614538616575,
717,4,0.004117500236752614,0,0,Schematic,ideal,2019_Mar_17_1117,Face-Threshold,3.0.4,60.31614538616575,
718,4,0.005108875218230169,1,0,Schematic,ideal,2019_Mar_17_1117,Face-Threshold,3.0.4,60.31614538616575,
719,4,0.004488099979267857,1,0,Schematic,ideal,2019_Mar_17_1117,Face-Threshold,3.0.4,60.31614538616575,
720,4,0.003889092291183227,1,0,Schematic,ideal,2019_Mar_17_1117,Face-Threshold,3.0.4,60.31614538616575,
721,4,0.0032848859397195396,0,0,Schematic,ideal,2019_Mar_17_1117,Face-Threshold,3.0.4,60.31614538616575,
722,4,0.0042861806817319215,1,0,Schematic,ideal,2019_Mar_17_1117,Face-Threshold,3.0.4,60.31614538616575,
723,4,0.003687711458867371,0,0,Schematic,ideal,2019_Mar_17_1117,Face-Threshold,3.0.4,60.31614538616575,
724,4,0.004678418035669263,1,0,Schematic,ideal,2019_Mar_17_1117,Face-Threshold,3.0.4,60.31614538616575,
725,4,0.004085191925273457,0,0,Schematic,ideal,2019_Mar_17_1117,Face-Threshold,3.0.4,60.31614538616575,
726,4,0.005066149409549248,1,0,Schematic,ideal,2019_Mar_17_1117,Face-Threshold,3.0.4,60.31614538616575,
727,4,0.00445196043713586,1,0,Schematic,ideal,2019_Mar_17_1117,Face-Threshold,3.0.4,60.31614538616575,
728,4,0.0038592493934885286,1,0,Schematic,ideal,2019_Mar_17_1117,Face-Threshold,3.0.4,60.31614538616575,
729,4,0.0032613530229531618,1,0,Schematic,ideal,2019_Mar_17_1117,Face-Threshold,3.0.4,60.31614538616575,
730,4,0.0026572505542055147,1,0,Schematic,ideal,2019_Mar_17_1117,Face-Threshold,3.0.4,60.31614538616575,
731,4,0.002045901726474675,1,0,Schematic,ideal,2019_Mar_17_1117,Face-Threshold,3.0.4,60.31614538616575,
732,4,0.0014262433557897247,0,0,Schematic,ideal,2019_Mar_17_1117,Face-Threshold,3.0.4,60.31614538616575,
733,4,0.0024580644178245348,0,0,Schematic,ideal,2019_Mar_17_1117,Face-Threshold,3.0.4,60.31614538616575,
734,4,0.003461584629398884,0,0,Schematic,ideal,2019_Mar_17_1117,Face-Threshold,3.0.4,60.31614538616575,
735,4,0.00444189506699133,1,0,Schematic,ideal,2019_Mar_17_1117,Face-Threshold,3.0.4,60.31614538616575,
736,4,0.0038554544774234145,0,0,Schematic,ideal,2019_Mar_17_1117,Face-Threshold,3.0.4,60.31614538616575,
737,4,0.004825785836261809,1,0,Schematic,ideal,2019_Mar_17_1117,Face-Threshold,3.0.4,60.31614538616575,
738,4,0.004244269320566041,1,0,Schematic,ideal,2019_Mar_17_1117,Face-Threshold,3.0.4,60.31614538616575,
739,4,0.0036582949316772417,1,0,Schematic,ideal,2019_Mar_17_1117,Face-Threshold,3.0.4,60.31614538616575,
740,4,0.003066880523041604,1,0,Schematic,ideal,2019_Mar_17_1117,Face-Threshold,3.0.4,60.31614538616575,
741,4,0.0024690271674879805,1,0,Schematic,ideal,2019_Mar_17_1117,Face-Threshold,3.0.4,60.31614538616575,
742,4,0.0018637159167898543,1,0,Schematic,ideal,2019_Mar_17_1117,Face-Threshold,3.0.4,60.31614538616575,
743,4,0.0012499044769321288,0,0,Schematic,ideal,2019_Mar_17_1117,Face-Threshold,3.0.4,60.31614538616575,
744,4,0.0022724139847612457,1,0,Schematic,ideal,2019_Mar_17_1117,Face-Threshold,3.0.4,60.31614538616575,
745,4,0.00166653267265654,0,0,Schematic,ideal,2019_Mar_17_1117,Face-Threshold,3.0.4,60.31614538616575,
746,4,0.0026747886562015766,1,0,Schematic,ideal,2019_Mar_17_1117,Face-Threshold,3.0.4,60.31614538616575,
747,4,0.0020763051090995077,1,0,Schematic,ideal,2019_Mar_17_1117,Face-Threshold,3.0.4,60.31614538616575,
748,4,0.0014697491616190717,0,0,Schematic,ideal,2019_Mar_17_1117,Face-Threshold,3.0.4,60.31614538616575,
749,4,0.002479617038690929,0,0,Schematic,ideal,2019_Mar_17_1117,Face-Threshold,3.0.4,60.31614538616575,
750,4,0.0034620647250646064,1,0,Schematic,ideal,2019_Mar_17_1117,Face-Threshold,3.0.4,60.31614538616575,
751,4,0.0028768489727777347,0,0,Schematic,ideal,2019_Mar_17_1117,Face-Threshold,3.0.4,60.31614538616575,
752,4,0.0038476812379406033,0,0,Schematic,ideal,2019_Mar_17_1117,Face-Threshold,3.0.4,60.31614538616575,
753,4,0.004797909185715543,1,0,Schematic,ideal,2019_Mar_17_1117,Face-Threshold,3.0.4,60.31614538616575,
754,4,0.004228406159688003,0,0,Schematic,ideal,2019_Mar_17_1117,Face-Threshold,3.0.4,60.31614538616575,
755,4,0.005169721122627924,1,0,Schematic,ideal,2019_Mar_17_1117,Face-Threshold,3.0.4,60.31614538616575,
756,4,0.0045798423448001335,0,0,Schematic,ideal,2019_Mar_17_1117,Face-Threshold,3.0.4,60.31614538616575,
757,4,0.0055131517676998976,0,0,Schematic,ideal,2019_Mar_17_1117,Face-Threshold,3.0.4,60.31614538616575,
758,4,0.006510598438736914,0,0,Schematic,ideal,2019_Mar_17_1117,Face-Threshold,3.0.4,60.31614538616575,
759,4,0.0074984287730063826,0,0,Schematic,ideal,2019_Mar_17_1117,Face-Threshold,3.0.4,60.31614538616575,
760,4,0.008481764007249148,1,0,Schematic,ideal,2019_Mar_17_1117,Face-Threshold,3.0.4,60.31614538616575,
761,4,0.007903889912272921,1,0,Schematic,ideal,2019_Mar_17_1117,Face-Threshold,3.0.4,60.31614538616575,
762,4,0.007327899115633751,1,0,Schematic,ideal,2019_Mar_17_1117,Face-Threshold,3.0.4,60.31614538616575,
763,4,0.006752791890351717,1,0,Schematic,ideal,2019_Mar_17_1117,Face-Threshold,3.0.4,60.31614538616575,
764,4,0.006177572816933763,1,0,Schematic,ideal,2019_Mar_17_1117,Face-Threshold,3.0.4,60.31614538616575,
765,4,0.005601247400270348,0,0,Schematic,ideal,2019_Mar_17_1117,Face-Threshold,3.0.4,60.31614538616575,
766,4,0.006586039762006224,1,0,Schematic,ideal,2019_Mar_17_1117,Face-Threshold,3.0.4,60.31614538616575,
767,4,0.0060128991399944764,1,0,Schematic,ideal,2019_Mar_17_1117,Face-Threshold,3.0.4,60.31614538616575,
768,4,0.005438375302376841,1,0,Schematic,ideal,2019_Mar_17_1117,Face-Threshold,3.0.4,60.31614538616575,
769,4,0.004861477754981913,0,0,Schematic,ideal,2019_Mar_17_1117,Face-Threshold,3.0.4,60.31614538616575,
770,4,0.005773427792995611,0,0,Schematic,ideal,2019_Mar_17_1117,Face-Threshold,3.0.4,60.31614538616575,
771,4,0.006749462446236476,1,0,Schematic,ideal,2019_Mar_17_1117,Face-Threshold,3.0.4,60.31614538616575,
772,4,0.0061808988558090805,0,0,Schematic,ideal,2019_Mar_17_1117,Face-Threshold,3.0.4,60.31614538616575,
773,4,0.007150736040146599,1,0,Schematic,ideal,2019_Mar_17_1117,Face-Threshold,3.0.4,60.31614538616575,
774,4,0.006584591039253351,1,0,Schematic,ideal,2019_Mar_17_1117,Face-Threshold,3.0.4,60.31614538616575,
775,4,0.006018059223123373,0,0,Schematic,ideal,2019_Mar_17_1117,Face-Threshold,3.0.4,60.31614538616575,
776,4,0.006984898327755118,1,0,Schematic,ideal,2019_Mar_17_1117,Face-Threshold,3.0.4,60.31614538616575,
777,4,0.00642096477349946,1,0,Schematic,ideal,2019_Mar_17_1117,Face-Threshold,3.0.4,60.31614538616575,
778,4,0.005856370700433378,0,0,Schematic,ideal,2019_Mar_17_1117,Face-Threshold,3.0.4,60.31614538616575,
779,4,0.006820365187974575,1,0,Schematic,ideal,2019_Mar_17_1117,Face-Threshold,3.0.4,60.31614538616575,
780,4,0.00625854686893168,1,0,Schematic,ideal,2019_Mar_17_1117,Face-Threshold,3.0.4,60.31614538616575,
781,4,0.00569579841751211,0,0,Schematic,ideal,2019_Mar_17_1117,Face-Threshold,3.0.4,60.31614538616575,
782,4,0.006657098736756573,0,0,Schematic,ideal,2019_Mar_17_1117,Face-Threshold,3.0.4,60.31614538616575,
783,4,0.007610170593633503,1,0,Schematic,ideal,2019_Mar_17_1117,Face-Threshold,3.0.4,60.31614538616575,
784,4,0.0070524091772935504,1,0,Schematic,ideal,2019_Mar_17_1117,Face-Threshold,3.0.4,60.31614538616575,
785,4,0.006495062014192365,1,0,Schematic,ideal,2019_Mar_17_1117,Face-Threshold,3.0.4,60.31614538616575,
786,4,0.005937193432265231,0,0,Schematic,ideal,2019_Mar_17_1117,Face-Threshold,3.0.4,60.31614538616575,
787,4,0.006889463300133847,1,0,Schematic,ideal,2019_Mar_17_1117,Face-Threshold,3.0.4,60.31614538616575,
788,4,0.006334218954017701,1,0,Schematic,ideal,2019_Mar_17_1117,Face-Threshold,3.0.4,60.31614538616575,
789,4,0.005778188662515504,1,0,Schematic,ideal,2019_Mar_17_1117,Face-Threshold,3.0.4,60.31614538616575,
790,4,0.005220442512242296,1,0,Schematic,ideal,2019_Mar_17_1117,Face-Threshold,3.0.4,60.31614538616575,
791,4,0.0046600461091019785,1,0,Schematic,ideal,2019_Mar_17_1117,Face-Threshold,3.0.4,60.31614538616575,
792,4,0.004119649932537606,1,0,Schematic,ideal,2019_Mar_17_1117,Face-Threshold,3.0.4,60.31614538616575,
793,4,0.0035749680372295645,1,0,Schematic,ideal,2019_Mar_17_1117,Face-Threshold,3.0.4,60.31614538616575,
794,4,0.0030251487136264132,0,0,Schematic,ideal,2019_Mar_17_1117,Face-Threshold,3.0.4,60.31614538616575,
795,4,0.003936846271786754,0,0,Schematic,ideal,2019_Mar_17_1117,Face-Threshold,3.0.4,60.31614538616575,
796,4,0.004830011552846569,1,0,Schematic,ideal,2019_Mar_17_1117,Face-Threshold,3.0.4,60.31614538616575,
797,4,0.004294351927666362,0,0,Schematic,ideal,2019_Mar_17_1117,Face-Threshold,3.0.4,60.31614538616575,
798,4,0.005179509386590675,1,0,Schematic,ideal,2019_Mar_17_1117,Face-Threshold,3.0.4,60.31614538616575,
799,4,0.004624500636089213,0,0,Schematic,ideal,2019_Mar_17_1117,Face-Threshold,3.0.4,60.31614538616575,
800,4,0.005502458638380836,1,0,Schematic,ideal,2019_Mar_17_1117,Face-Threshold,3.0.4,60.31614538616575,
801,4,0.004951078139934839,1,0,Schematic,ideal,2019_Mar_17_1117,Face-Threshold,3.0.4,60.31614538616575,
802,4,0.004419868531752635,1,0,Schematic,ideal,2019_Mar_17_1117,Face-Threshold,3.0.4,60.31614538616575,
803,4,0.003884899200411629,0,0,Schematic,ideal,2019_Mar_17_1117,Face-Threshold,3.0.4,60.31614538616575,
804,4,0.004769907164038634,1,0,Schematic,ideal,2019_Mar_17_1117,Face-Threshold,3.0.4,60.31614538616575,
805,4,0.0042392428641021,1,0,Schematic,ideal,2019_Mar_17_1117,Face-Threshold,3.0.4,60.31614538616575,
806,4,0.0037045567508656174,0,0,Schematic,ideal,2019_Mar_17_1117,Face-Threshold,3.0.4,60.31614538616575,
807,4,0.004589528309777546,1,0,Schematic,ideal,2019_Mar_17_1117,Face-Threshold,3.0.4,60.31614538616575,
808,4,0.0040593138139531915,0,0,Schematic,ideal,2019_Mar_17_1117,Face-Threshold,3.0.4,60.31614538616575,
809,4,0.004936029429617295,1,0,Schematic,ideal,2019_Mar_17_1117,Face-Threshold,3.0.4,60.31614538616575,
810,4,0.004409902966613144,0,0,Schematic,ideal,2019_Mar_17_1117,Face-Threshold,3.0.4,60.31614538616575,
811,4,0.005279011874580686,1,0,Schematic,ideal,2019_Mar_17_1117,Face-Threshold,3.0.4,60.31614538616575,
812,4,0.004733723149543456,0,0,Schematic,ideal,2019_Mar_17_1117,Face-Threshold,3.0.4,60.31614538616575,
813,4,0.005595994472278043,1,0,Schematic,ideal,2019_Mar_17_1117,Face-Threshold,3.0.4,60.31614538616575,
814,4,0.005054139206771946,1,0,Schematic,ideal,2019_Mar_17_1117,Face-Threshold,3.0.4,60.31614538616575,
815,4,0.004509457562849206,1,0,Schematic,ideal,2019_Mar_17_1117,Face-Threshold,3.0.4,60.31614538616575,
816,4,0.003983987273891265,1,0,Schematic,ideal,2019_Mar_17_1117,Face-Threshold,3.0.4,60.31614538616575,
817,4,0.003454169440886057,0,0,Schematic,ideal,2019_Mar_17_1117,Face-Threshold,3.0.4,60.31614538616575,
818,4,0.0043316657267623015,1,0,Schematic,ideal,2019_Mar_17_1117,Face-Threshold,3.0.4,60.31614538616575,
819,4,0.0038064955449424454,0,0,Schematic,ideal,2019_Mar_17_1117,Face-Threshold,3.0.4,60.31614538616575,
820,4,0.004675460026317024,1,0,Schematic,ideal,2019_Mar_17_1117,Face-Threshold,3.0.4,60.31614538616575,
821,4,0.0041545583798787145,1,0,Schematic,ideal,2019_Mar_17_1117,Face-Threshold,3.0.4,60.31614538616575,
822,4,0.0036295975582641415,0,0,Schematic,ideal,2019_Mar_17_1117,Face-Threshold,3.0.4,60.31614538616575,
823,4,0.004498630905165779,0,0,Schematic,ideal,2019_Mar_17_1117,Face-Threshold,3.0.4,60.31614538616575,
824,4,0.005352440589218466,1,0,Schematic,ideal,2019_Mar_17_1117,Face-Threshold,3.0.4,60.31614538616575,
825,4,0.004816483219723555,1,0,Schematic,ideal,2019_Mar_17_1117,Face-Threshold,3.0.4,60.31614538616575,
826,4,0.004299932704859566,1,0,Schematic,ideal,2019_Mar_17_1117,Face-Threshold,3.0.4,60.31614538616575,
827,4,0.003779570209758165,1,0,Schematic,ideal,2019_Mar_17_1117,Face-Threshold,3.0.4,60.31614538616575,
828,4,0.0032546162279652457,1,0,Schematic,ideal,2019_Mar_17_1117,Face-Threshold,3.0.4,60.31614538616575,
829,4,0.0027242784638839557,1,0,Schematic,ideal,2019_Mar_17_1117,Face-Threshold,3.0.4,60.31614538616575,
830,4,0.0021877495391649515,1,0,Schematic,ideal,2019_Mar_17_1117,Face-Threshold,3.0.4,60.31614538616575,
831,4,0.001644204641707503,1,0,Schematic,ideal,2019_Mar_17_1117,Face-Threshold,3.0.4,60.31614538616575,
832,4,0.0010927991072123833,0,0,Schematic,ideal,2019_Mar_17_1117,Face-Threshold,3.0.4,60.31614538616575,
833,4,0.0020115659415597675,1,0,Schematic,ideal,2019_Mar_17_1117,Face-Threshold,3.0.4,60.31614538616575,
834,4,0.0014672114434442496,1,0,Schematic,ideal,2019_Mar_17_1117,Face-Threshold,3.0.4,60.31614538616575,
835,4,0.0009147456783993313,1,0,Schematic,ideal,2019_Mar_17_1117,Face-Threshold,3.0.4,60.31614538616575,
836,4,0.00035329896985714093,0,0,Schematic,ideal,2019_Mar_17_1117,Face-Threshold,3.0.4,60.31614538616575,
837,4,0.001290419989888214,0,0,Schematic,ideal,2019_Mar_17_1117,Face-Threshold,3.0.4,60.31614538616575,
838,4,0.002198484303998105,0,0,Schematic,ideal,2019_Mar_17_1117,Face-Threshold,3.0.4,60.31614538616575,
839,4,0.003081705309966709,0,0,Schematic,ideal,2019_Mar_17_1117,Face-Threshold,3.0.4,60.31614538616575,
840,4,0.003944049805465366,1,0,Schematic,ideal,2019_Mar_17_1117,Face-Threshold,3.0.4,60.31614538616575,
841,4,0.0034287521343704386,1,0,Schematic,ideal,2019_Mar_17_1117,Face-Threshold,3.0.4,60.31614538616575,
842,4,0.002908422038163161,1,0,Schematic,ideal,2019_Mar_17_1117,Face-Threshold,3.0.4,60.31614538616575,
843,4,0.0023822812212813127,1,0,Schematic,ideal,2019_Mar_17_1117,Face-Threshold,3.0.4,60.31614538616575,
844,4,0.001849535279134451,1,0,Schematic,ideal,2019_Mar_17_1117,Face-Threshold,3.0.4,60.31614538616575,
845,4,0.0013093714087880626,0,0,Schematic,ideal,2019_Mar_17_1117,Face-Threshold,3.0.4,60.31614538616575,
846,4,0.0022089179065304387,1,0,Schematic,ideal,2019_Mar_17_1117,Face-Threshold,3.0.4,60.31614538616575,
847,4,0.0016754424909965482,1,0,Schematic,ideal,2019_Mar_17_1117,Face-Threshold,3.0.4,60.31614538616575,
848,4,0.0011343063471244696,0,0,Schematic,ideal,2019_Mar_17_1117,Face-Threshold,3.0.4,60.31614538616575,
849,4,0.0020358498290577454,0,0,Schematic,ideal,2019_Mar_17_1117,Face-Threshold,3.0.4,60.31614538616575,
850,4,0.0029122198936793464,0,0,Schematic,ideal,2019_Mar_17_1117,Face-Threshold,3.0.4,60.31614538616575,
851,4,0.0037673275212478097,0,0,Schematic,ideal,2019_Mar_17_1117,Face-Threshold,3.0.4,60.31614538616575,
852,4,0.004604873424384814,0,0,Schematic,ideal,2019_Mar_17_1117,Face-Threshold,3.0.4,60.31614538616575,
853,4,0.005428380857744164,1,0,Schematic,ideal,2019_Mar_17_1117,Face-Threshold,3.0.4,60.31614538616575,
854,4,0.00491110176160392,1,0,Schematic,ideal,2019_Mar_17_1117,Face-Threshold,3.0.4,60.31614538616575,
855,4,0.004412722258093471,0,0,Schematic,ideal,2019_Mar_17_1117,Face-Threshold,3.0.4,60.31614538616575,
856,4,0.005235938472065715,1,0,Schematic,ideal,2019_Mar_17_1117,Face-Threshold,3.0.4,60.31614538616575,
857,4,0.004719316297266962,0,0,Schematic,ideal,2019_Mar_17_1117,Face-Threshold,3.0.4,60.31614538616575,
858,4,0.005536241239586792,1,0,Schematic,ideal,2019_Mar_17_1117,Face-Threshold,3.0.4,60.31614538616575,
859,4,0.005022797715657057,1,0,Schematic,ideal,2019_Mar_17_1117,Face-Threshold,3.0.4,60.31614538616575,
860,4,0.004506656003219811,0,0,Schematic,ideal,2019_Mar_17_1117,Face-Threshold,3.0.4,60.31614538616575,
861,4,0.0053233605400129225,0,0,Schematic,ideal,2019_Mar_17_1117,Face-Threshold,3.0.4,60.31614538616575,
862,4,0.0061963877893812525,1,0,Schematic,ideal,2019_Mar_17_1117,Face-Threshold,3.0.4,60.31614538616575,
863,4,0.00568874082426013,0,0,Schematic,ideal,2019_Mar_17_1117,Face-Threshold,3.0.4,60.31614538616575,
864,4,0.006555839006585573,1,0,Schematic,ideal,2019_Mar_17_1117,Face-Threshold,3.0.4,60.31614538616575,
865,4,0.0060506857667355085,0,0,Schematic,ideal,2019_Mar_17_1117,Face-Threshold,3.0.4,60.31614538616575,
866,4,0.006912583226344693,1,0,Schematic,ideal,2019_Mar_17_1117,Face-Threshold,3.0.4,60.31614538616575,
867,4,0.006409515010603994,1,0,Schematic,ideal,2019_Mar_17_1117,Face-Threshold,3.0.4,60.31614538616575,
868,4,0.005905907078199768,0,0,Schematic,ideal,2019_Mar_17_1117,Face-Threshold,3.0.4,60.31614538616575,
869,4,0.006765539285302824,1,0,Schematic,ideal,2019_Mar_17_1117,Face-Threshold,3.0.4,60.31614538616575,
870,4,0.006264160182433753,1,0,Schematic,ideal,2019_Mar_17_1117,Face-Threshold,3.0.4,60.31614538616575,
871,4,0.005762024699635715,1,0,Schematic,ideal,2019_Mar_17_1117,Face-Threshold,3.0.4,60.31614538616575,
872,4,0.00525837055968259,1,0,Schematic,ideal,2019_Mar_17_1117,Face-Threshold,3.0.4,60.31614538616575,
873,4,0.004752431712797933,0,0,Schematic,ideal,2019_Mar_17_1117,Face-Threshold,3.0.4,60.31614538616575,
874,4,0.005552362296897262,0,0,Schematic,ideal,2019_Mar_17_1117,Face-Threshold,3.0.4,60.31614538616575,
875,4,0.006408540462296997,1,0,Schematic,ideal,2019_Mar_17_1117,Face-Threshold,3.0.4,60.31614538616575,
876,4,0.005910069848029498,0,0,Schematic,ideal,2019_Mar_17_1117,Face-Threshold,3.0.4,60.31614538616575,
877,4,0.006760913170129335,1,0,Schematic,ideal,2019_Mar_17_1117,Face-Threshold,3.0.4,60.31614538616575,
878,4,0.006264627938432743,1,0,Schematic,ideal,2019_Mar_17_1117,Face-Threshold,3.0.4,60.31614538616575,
879,4,0.005767600310839338,0,0,Schematic,ideal,2019_Mar_17_1117,Face-Threshold,3.0.4,60.31614538616575,
880,4,0.0066163410817663415,1,0,Schematic,ideal,2019_Mar_17_1117,Face-Threshold,3.0.4,60.31614538616575,
881,4,0.006121638480423852,1,0,Schematic,ideal,2019_Mar_17_1117,Face-Threshold,3.0.4,60.31614538616575,
882,4,0.005625983768339393,1,0,Schematic,ideal,2019_Mar_17_1117,Face-Threshold,3.0.4,60.31614538616575,
883,4,0.005128633887441336,1,0,Schematic,ideal,2019_Mar_17_1117,Face-Threshold,3.0.4,60.31614538616575,
884,4,0.004628841508614923,1,0,Schematic,ideal,2019_Mar_17_1117,Face-Threshold,3.0.4,60.31614538616575,
885,4,0.0041469030030560905,0,0,Schematic,ideal,2019_Mar_17_1117,Face-Threshold,3.0.4,60.31614538616575,
886,4,0.0049435193518254095,1,0,Schematic,ideal,2019_Mar_17_1117,Face-Threshold,3.0.4,60.31614538616575,
887,4,0.004465083582307017,0,0,Schematic,ideal,2019_Mar_17_1117,Face-Threshold,3.0.4,60.31614538616575,
888,4,0.005255207659014327,1,0,Schematic,ideal,2019_Mar_17_1117,Face-Threshold,3.0.4,60.31614538616575,
889,4,0.004759146718477547,0,0,Schematic,ideal,2019_Mar_17_1117,Face-Threshold,3.0.4,60.31614538616575,
890,4,0.0055434257785624275,1,0,Schematic,ideal,2019_Mar_17_1117,Face-Threshold,3.0.4,60.31614538616575,
891,4,0.0050503239727903715,1,0,Schematic,ideal,2019_Mar_17_1117,Face-Threshold,3.0.4,60.31614538616575,
892,4,0.004554689759806663,1,0,Schematic,ideal,2019_Mar_17_1117,Face-Threshold,3.0.4,60.31614538616575,
893,4,0.004076655032711929,0,0,Schematic,ideal,2019_Mar_17_1117,Face-Threshold,3.0.4,60.31614538616575,
894,4,0.004866964437181098,1,0,Schematic,ideal,2019_Mar_17_1117,Face-Threshold,3.0.4,60.31614538616575,
895,4,0.004392452814016623,0,0,Schematic,ideal,2019_Mar_17_1117,Face-Threshold,3.0.4,60.31614538616575,
896,4,0.00517624745212647,1,0,Schematic,ideal,2019_Mar_17_1117,Face-Threshold,3.0.4,60.31614538616575,
897,4,0.004684315032030595,1,0,Schematic,ideal,2019_Mar_17_1117,Face-Threshold,3.0.4,60.31614538616575,
898,4,0.004210046320652749,0,0,Schematic,ideal,2019_Mar_17_1117,Face-Threshold,3.0.4,60.31614538616575,
899,4,0.0049938349489350164,1,0,Schematic,ideal,2019_Mar_17_1117,Face-Threshold,3.0.4,60.31614538616575,
900,4,0.0045229378875244475,0,0,Schematic,ideal,2019_Mar_17_1117,Face-Threshold,3.0.4,60.31614538616575,
901,4,0.005300473025012464,1,0,Schematic,ideal,2019_Mar_17_1117,Face-Threshold,3.0.4,60.31614538616575,
902,4,0.004812148825585172,1,0,Schematic,ideal,2019_Mar_17_1117,Face-Threshold,3.0.4,60.31614538616575,
903,4,0.004341551030299984,1,0,Schematic,ideal,2019_Mar_17_1117,Face-Threshold,3.0.4,60.31614538616575,
904,4,0.0038675833993453423,1,0,Schematic,ideal,2019_Mar_17_1117,Face-Threshold,3.0.4,60.31614538616575,
905,4,0.0033895957069774996,1,0,Schematic,ideal,2019_Mar_17_1117,Face-Threshold,3.0.4,60.31614538616575,
906,4,0.0029069273993597156,1,0,Schematic,ideal,2019_Mar_17_1117,Face-Threshold,3.0.4,60.31614538616575,
907,4,0.0024189058459087587,1,0,Schematic,ideal,2019_Mar_17_1117,Face-Threshold,3.0.4,60.31614538616575,
908,4,0.0019248445482302756,1,0,Schematic,ideal,2019_Mar_17_1117,Face-Threshold,3.0.4,60.31614538616575,
909,4,0.0014240412996290863,0,0,Schematic,ideal,2019_Mar_17_1117,Face-Threshold,3.0.4,60.31614538616575,
910,4,0.002257730587923168,1,0,Schematic,ideal,2019_Mar_17_1117,Face-Threshold,3.0.4,60.31614538616575,
911,4,0.0017629176220459453,0,0,Schematic,ideal,2019_Mar_17_1117,Face-Threshold,3.0.4,60.31614538616575,
912,4,0.002585946646521231,0,0,Schematic,ideal,2019_Mar_17_1117,Face-Threshold,3.0.4,60.31614538616575,
913,4,0.0033883262728921504,0,0,Schematic,ideal,2019_Mar_17_1117,Face-Threshold,3.0.4,60.31614538616575,
914,4,0.004173331821586412,1,0,Schematic,ideal,2019_Mar_17_1117,Face-Threshold,3.0.4,60.31614538616575,
915,4,0.0037034403575748054,0,0,Schematic,ideal,2019_Mar_17_1117,Face-Threshold,3.0.4,60.31614538616575,
916,4,0.004481063239355709,1,0,Schematic,ideal,2019_Mar_17_1117,Face-Threshold,3.0.4,60.31614538616575,
917,4,0.00401492203163617,1,0,Schematic,ideal,2019_Mar_17_1117,Face-Threshold,3.0.4,60.31614538616575,
918,4,0.0035450250490045576,0,0,Schematic,ideal,2019_Mar_17_1117,Face-Threshold,3.0.4,60.31614538616575,
919,4,0.004322989474427885,1,0,Schematic,ideal,2019_Mar_17_1117,Face-Threshold,3.0.4,60.31614538616575,
920,4,0.0038569731658048,1,0,Schematic,ideal,2019_Mar_17_1117,Face-Threshold,3.0.4,60.31614538616575,
921,4,0.003386999448429462,0,0,Schematic,ideal,2019_Mar_17_1117,Face-Threshold,3.0.4,60.31614538616575,
922,4,0.0041654205713592685,1,0,Schematic,ideal,2019_Mar_17_1117,Face-Threshold,3.0.4,60.31614538616575,
923,4,0.0036994575838594224,1,0,Schematic,ideal,2019_Mar_17_1117,Face-Threshold,3.0.4,60.31614538616575,
924,4,0.00322933667102393,1,0,Schematic,ideal,2019_Mar_17_1117,Face-Threshold,3.0.4,60.31614538616575,
925,4,0.002754418368299316,0,0,Schematic,ideal,2019_Mar_17_1117,Face-Threshold,3.0.4,60.31614538616575,
926,4,0.0035423480725411682,0,0,Schematic,ideal,2019_Mar_17_1117,Face-Threshold,3.0.4,60.31614538616575,
927,4,0.004313826757792849,0,0,Schematic,ideal,2019_Mar_17_1117,Face-Threshold,3.0.4,60.31614538616575,
928,4,0.005071860443898124,1,0,Schematic,ideal,2019_Mar_17_1117,Face-Threshold,3.0.4,60.31614538616575,
929,4,0.004596210216057606,1,0,Schematic,ideal,2019_Mar_17_1117,Face-Threshold,3.0.4,60.31614538616575,
930,4,0.004137531153982799,1,0,Schematic,ideal,2019_Mar_17_1117,Face-Threshold,3.0.4,60.31614538616575,
931,4,0.0036753203816287106,0,0,Schematic,ideal,2019_Mar_17_1117,Face-Threshold,3.0.4,60.31614538616575,
932,4,0.004440277019370165,1,0,Schematic,ideal,2019_Mar_17_1117,Face-Threshold,3.0.4,60.31614538616575,
933,4,0.003981756546420079,1,0,Schematic,ideal,2019_Mar_17_1117,Face-Threshold,3.0.4,60.31614538616575,
934,4,0.0035195080584548566,1,0,Schematic,ideal,2019_Mar_17_1117,Face-Threshold,3.0.4,60.31614538616575,
935,4,0.0030529124366255322,1,0,Schematic,ideal,2019_Mar_17_1117,Face-Threshold,3.0.4,60.31614538616575,
936,4,0.0025813396648931564,1,0,Schematic,ideal,2019_Mar_17_1117,Face-Threshold,3.0.4,60.31614538616575,
937,4,0.002104147204539053,0,0,Schematic,ideal,2019_Mar_17_1117,Face-Threshold,3.0.4,60.31614538616575,
938,4,0.002897164265560137,1,0,Schematic,ideal,2019_Mar_17_1117,Face-Threshold,3.0.4,60.31614538616575,
939,4,0.002425093684158497,0,0,Schematic,ideal,2019_Mar_17_1117,Face-Threshold,3.0.4,60.31614538616575,
940,4,0.003208955517470191,1,0,Schematic,ideal,2019_Mar_17_1117,Face-Threshold,3.0.4,60.31614538616575,
941,4,0.002741688984348789,1,0,Schematic,ideal,2019_Mar_17_1117,Face-Threshold,3.0.4,60.31614538616575,
942,4,0.0022690540844289564,1,0,Schematic,ideal,2019_Mar_17_1117,Face-Threshold,3.0.4,60.31614538616575,
943,4,0.0017904059311364962,1,0,Schematic,ideal,2019_Mar_17_1117,Face-Threshold,3.0.4,60.31614538616575,
944,4,0.0013050844914886395,0,0,Schematic,ideal,2019_Mar_17_1117,Face-Threshold,3.0.4,60.31614538616575,
945,4,0.0021131965067183733,0,0,Schematic,ideal,2019_Mar_17_1117,Face-Threshold,3.0.4,60.31614538616575,
946,4,0.002899661651446117,0,0,Schematic,ideal,2019_Mar_17_1117,Face-Threshold,3.0.4,60.31614538616575,
947,4,0.003667640053972132,1,0,Schematic,ideal,2019_Mar_17_1117,Face-Threshold,3.0.4,60.31614538616575,
948,4,0.003208879207359905,1,0,Schematic,ideal,2019_Mar_17_1117,Face-Threshold,3.0.4,60.31614538616575,
949,4,0.0027454240199860647,1,0,Schematic,ideal,2019_Mar_17_1117,Face-Threshold,3.0.4,60.31614538616575,
950,4,0.0022766530221620673,0,0,Schematic,ideal,2019_Mar_17_1117,Face-Threshold,3.0.4,60.31614538616575,
951,4,0.003055322094268953,1,0,Schematic,ideal,2019_Mar_17_1117,Face-Threshold,3.0.4,60.31614538616575,
952,4,0.002591426499539806,1,0,Schematic,ideal,2019_Mar_17_1117,Face-Threshold,3.0.4,60.31614538616575,
953,4,0.0021220234576831976,0,0,Schematic,ideal,2019_Mar_17_1117,Face-Threshold,3.0.4,60.31614538616575,
954,4,0.00290204589605092,1,0,Schematic,ideal,2019_Mar_17_1117,Face-Threshold,3.0.4,60.31614538616575,
955,4,0.002437644929264904,1,0,Schematic,ideal,2019_Mar_17_1117,Face-Threshold,3.0.4,60.31614538616575,
956,4,0.001967545436594109,1,0,Schematic,ideal,2019_Mar_17_1117,Face-Threshold,3.0.4,60.31614538616575,
957,4,0.0014911097371115845,1,0,Schematic,ideal,2019_Mar_17_1117,Face-Threshold,3.0.4,60.31614538616575,
958,4,0.0010076843498799115,1,0,Schematic,ideal,2019_Mar_17_1117,Face-Threshold,3.0.4,60.31614538616575,
959,4,0.0005165982962303528,1,0,Schematic,ideal,2019_Mar_17_1117,Face-Threshold,3.0.4,60.31614538616575,
960,4,1.7161340548466075e-05,1,0,Schematic,ideal,2019_Mar_17_1117,Face-Threshold,3.0.4,60.31614538616575,
961,4,0,1,0,Schematic,ideal,2019_Mar_17_1117,Face-Threshold,3.0.4,60.31614538616575,
962,4,0,1,0,Schematic,ideal,2019_Mar_17_1117,Face-Threshold,3.0.4,60.31614538616575,
963,4,0,1,0,Schematic,ideal,2019_Mar_17_1117,Face-Threshold,3.0.4,60.31614538616575,
964,4,0,1,0,Schematic,ideal,2019_Mar_17_1117,Face-Threshold,3.0.4,60.31614538616575,
965,4,0,0,0,Schematic,ideal,2019_Mar_17_1117,Face-Threshold,3.0.4,60.31614538616575,
966,4,0,0,0,Schematic,ideal,2019_Mar_17_1117,Face-Threshold,3.0.4,60.31614538616575,
967,4,0,0,0,Schematic,ideal,2019_Mar_17_1117,Face-Threshold,3.0.4,60.31614538616575,
968,4,4.294261808057698e-05,0,0,Schematic,ideal,2019_Mar_17_1117,Face-Threshold,3.0.4,60.31614538616575,
969,4,0.0008700617820966428,1,0,Schematic,ideal,2019_Mar_17_1117,Face-Threshold,3.0.4,60.31614538616575,
970,4,0.00038167110584536035,1,0,Schematic,ideal,2019_Mar_17_1117,Face-Threshold,3.0.4,60.31614538616575,
971,4,0,0,0,Schematic,ideal,2019_Mar_17_1117,Face-Threshold,3.0.4,60.31614538616575,
972,4,0.0007147933040120846,0,0,Schematic,ideal,2019_Mar_17_1117,Face-Threshold,3.0.4,60.31614538616575,
973,4,0.0015181753321575897,0,0,Schematic,ideal,2019_Mar_17_1117,Face-Threshold,3.0.4,60.31614538616575,
974,4,0.002298293832406817,0,0,Schematic,ideal,2019_Mar_17_1117,Face-Threshold,3.0.4,60.31614538616575,
975,4,0.003058269856317908,1,0,Schematic,ideal,2019_Mar_17_1117,Face-Threshold,3.0.4,60.31614538616575,
976,4,0.0026054256574638,1,0,Schematic,ideal,2019_Mar_17_1117,Face-Threshold,3.0.4,60.31614538616575,
977,4,0.002147233902480672,1,0,Schematic,ideal,2019_Mar_17_1117,Face-Threshold,3.0.4,60.31614538616575,
978,4,0.001683087565367225,1,0,Schematic,ideal,2019_Mar_17_1117,Face-Threshold,3.0.4,60.31614538616575,
979,4,0.0012123650810709763,0,0,Schematic,ideal,2019_Mar_17_1117,Face-Threshold,3.0.4,60.31614538616575,
980,4,0.001996307267697617,0,0,Schematic,ideal,2019_Mar_17_1117,Face-Threshold,3.0.4,60.31614538616575,
981,4,0.002759077454530967,1,0,Schematic,ideal,2019_Mar_17_1117,Face-Threshold,3.0.4,60.31614538616575,
982,4,0.0023051407540834457,0,0,Schematic,ideal,2019_Mar_17_1117,Face-Threshold,3.0.4,60.31614538616575,
983,4,0.003059087013080497,1,0,Schematic,ideal,2019_Mar_17_1117,Face-Threshold,3.0.4,60.31614538616575,
984,4,0.0026098087126891767,1,0,Schematic,ideal,2019_Mar_17_1117,Face-Threshold,3.0.4,60.31614538616575,
985,4,0.002155234026437025,1,0,Schematic,ideal,2019_Mar_17_1117,Face-Threshold,3.0.4,60.31614538616575,
986,4,0.001694765170931034,0,0,Schematic,ideal,2019_Mar_17_1117,Face-Threshold,3.0.4,60.31614538616575,
987,4,0.0024607280553358146,1,0,Schematic,ideal,2019_Mar_17_1117,Face-Threshold,3.0.4,60.31614538616575,
988,4,0.002005454836151943,1,0,Schematic,ideal,2019_Mar_17_1117,Face-Threshold,3.0.4,60.31614538616575,
989,4,0.001544105978539878,1,0,Schematic,ideal,2019_Mar_17_1117,Face-Threshold,3.0.4,60.31614538616575,
990,4,0.0010760674556891114,1,0,Schematic,ideal,2019_Mar_17_1117,Face-Threshold,3.0.4,60.31614538616575,
991,4,0.0006007089853918846,1,0,Schematic,ideal,2019_Mar_17_1117,Face-Threshold,3.0.4,60.31614538616575,
992,4,0.00011738242744008254,0,0,Schematic,ideal,2019_Mar_17_1117,Face-Threshold,3.0.4,60.31614538616575,
993,4,0.000924330961905695,1,0,Schematic,ideal,2019_Mar_17_1117,Face-Threshold,3.0.4,60.31614538616575,
