trials.thisRepN,trials.thisTrialN,trials.thisN,trials.thisIndex,correct,rt,Face,participant,threshold,date,expName,psychopyVersion,frameRate,
0,0,0,0,1,0,Schematic,ideal,0.004,2019_Mar_17_1941,Face-ClassificationImage,3.0.4,60.254754934042296,
0,1,1,1,1,0,Schematic,ideal,0.004,2019_Mar_17_1941,Face-ClassificationImage,3.0.4,60.254754934042296,
1,0,2,0,0,0,Schematic,ideal,0.004,2019_Mar_17_1941,Face-ClassificationImage,3.0.4,60.254754934042296,
1,1,3,1,0,0,Schematic,ideal,0.004,2019_Mar_17_1941,Face-ClassificationImage,3.0.4,60.254754934042296,
2,0,4,0,1,0,Schematic,ideal,0.004,2019_Mar_17_1941,Face-ClassificationImage,3.0.4,60.254754934042296,
2,1,5,1,0,0,Schematic,ideal,0.004,2019_Mar_17_1941,Face-ClassificationImage,3.0.4,60.254754934042296,
3,0,6,0,1,0,Schematic,ideal,0.004,2019_Mar_17_1941,Face-ClassificationImage,3.0.4,60.254754934042296,
3,1,7,1,1,0,Schematic,ideal,0.004,2019_Mar_17_1941,Face-ClassificationImage,3.0.4,60.254754934042296,
4,0,8,1,0,0,Schematic,ideal,0.004,2019_Mar_17_1941,Face-ClassificationImage,3.0.4,60.254754934042296,
4,1,9,0,0,0,Schematic,ideal,0.004,2019_Mar_17_1941,Face-ClassificationImage,3.0.4,60.254754934042296,
5,0,10,1,1,0,Schematic,ideal,0.004,2019_Mar_17_1941,Face-ClassificationImage,3.0.4,60.254754934042296,
5,1,11,0,1,0,Schematic,ideal,0.004,2019_Mar_17_1941,Face-ClassificationImage,3.0.4,60.254754934042296,
6,0,12,1,1,0,Schematic,ideal,0.004,2019_Mar_17_1941,Face-ClassificationImage,3.0.4,60.254754934042296,
6,1,13,0,1,0,Schematic,ideal,0.004,2019_Mar_17_1941,Face-ClassificationImage,3.0.4,60.254754934042296,
7,0,14,0,1,0,Schematic,ideal,0.004,2019_Mar_17_1941,Face-ClassificationImage,3.0.4,60.254754934042296,
7,1,15,1,1,0,Schematic,ideal,0.004,2019_Mar_17_1941,Face-ClassificationImage,3.0.4,60.254754934042296,
8,0,16,0,1,0,Schematic,ideal,0.004,2019_Mar_17_1941,Face-ClassificationImage,3.0.4,60.254754934042296,
8,1,17,1,0,0,Schematic,ideal,0.004,2019_Mar_17_1941,Face-ClassificationImage,3.0.4,60.254754934042296,
9,0,18,0,0,0,Schematic,ideal,0.004,2019_Mar_17_1941,Face-ClassificationImage,3.0.4,60.254754934042296,
9,1,19,1,1,0,Schematic,ideal,0.004,2019_Mar_17_1941,Face-ClassificationImage,3.0.4,60.254754934042296,
10,0,20,0,1,0,Schematic,ideal,0.004,2019_Mar_17_1941,Face-ClassificationImage,3.0.4,60.254754934042296,
10,1,21,1,1,0,Schematic,ideal,0.004,2019_Mar_17_1941,Face-ClassificationImage,3.0.4,60.254754934042296,
11,0,22,1,0,0,Schematic,ideal,0.004,2019_Mar_17_1941,Face-ClassificationImage,3.0.4,60.254754934042296,
11,1,23,0,0,0,Schematic,ideal,0.004,2019_Mar_17_1941,Face-ClassificationImage,3.0.4,60.254754934042296,
12,0,24,0,1,0,Schematic,ideal,0.004,2019_Mar_17_1941,Face-ClassificationImage,3.0.4,60.254754934042296,
12,1,25,1,0,0,Schematic,ideal,0.004,2019_Mar_17_1941,Face-ClassificationImage,3.0.4,60.254754934042296,
13,0,26,0,0,0,Schematic,ideal,0.004,2019_Mar_17_1941,Face-ClassificationImage,3.0.4,60.254754934042296,
13,1,27,1,1,0,Schematic,ideal,0.004,2019_Mar_17_1941,Face-ClassificationImage,3.0.4,60.254754934042296,
14,0,28,0,1,0,Schematic,ideal,0.004,2019_Mar_17_1941,Face-ClassificationImage,3.0.4,60.254754934042296,
14,1,29,1,0,0,Schematic,ideal,0.004,2019_Mar_17_1941,Face-ClassificationImage,3.0.4,60.254754934042296,
15,0,30,1,1,0,Schematic,ideal,0.004,2019_Mar_17_1941,Face-ClassificationImage,3.0.4,60.254754934042296,
15,1,31,0,0,0,Schematic,ideal,0.004,2019_Mar_17_1941,Face-ClassificationImage,3.0.4,60.254754934042296,
16,0,32,0,1,0,Schematic,ideal,0.004,2019_Mar_17_1941,Face-ClassificationImage,3.0.4,60.254754934042296,
16,1,33,1,1,0,Schematic,ideal,0.004,2019_Mar_17_1941,Face-ClassificationImage,3.0.4,60.254754934042296,
17,0,34,1,1,0,Schematic,ideal,0.004,2019_Mar_17_1941,Face-ClassificationImage,3.0.4,60.254754934042296,
17,1,35,0,1,0,Schematic,ideal,0.004,2019_Mar_17_1941,Face-ClassificationImage,3.0.4,60.254754934042296,
18,0,36,0,0,0,Schematic,ideal,0.004,2019_Mar_17_1941,Face-ClassificationImage,3.0.4,60.254754934042296,
18,1,37,1,1,0,Schematic,ideal,0.004,2019_Mar_17_1941,Face-ClassificationImage,3.0.4,60.254754934042296,
19,0,38,0,0,0,Schematic,ideal,0.004,2019_Mar_17_1941,Face-ClassificationImage,3.0.4,60.254754934042296,
19,1,39,1,1,0,Schematic,ideal,0.004,2019_Mar_17_1941,Face-ClassificationImage,3.0.4,60.254754934042296,
20,0,40,1,1,0,Schematic,ideal,0.004,2019_Mar_17_1941,Face-ClassificationImage,3.0.4,60.254754934042296,
20,1,41,0,1,0,Schematic,ideal,0.004,2019_Mar_17_1941,Face-ClassificationImage,3.0.4,60.254754934042296,
21,0,42,0,0,0,Schematic,ideal,0.004,2019_Mar_17_1941,Face-ClassificationImage,3.0.4,60.254754934042296,
21,1,43,1,0,0,Schematic,ideal,0.004,2019_Mar_17_1941,Face-ClassificationImage,3.0.4,60.254754934042296,
22,0,44,1,0,0,Schematic,ideal,0.004,2019_Mar_17_1941,Face-ClassificationImage,3.0.4,60.254754934042296,
22,1,45,0,0,0,Schematic,ideal,0.004,2019_Mar_17_1941,Face-ClassificationImage,3.0.4,60.254754934042296,
23,0,46,1,0,0,Schematic,ideal,0.004,2019_Mar_17_1941,Face-ClassificationImage,3.0.4,60.254754934042296,
23,1,47,0,0,0,Schematic,ideal,0.004,2019_Mar_17_1941,Face-ClassificationImage,3.0.4,60.254754934042296,
24,0,48,1,0,0,Schematic,ideal,0.004,2019_Mar_17_1941,Face-ClassificationImage,3.0.4,60.254754934042296,
24,1,49,0,1,0,Schematic,ideal,0.004,2019_Mar_17_1941,Face-ClassificationImage,3.0.4,60.254754934042296,
25,0,50,0,0,0,Schematic,ideal,0.004,2019_Mar_17_1941,Face-ClassificationImage,3.0.4,60.254754934042296,
25,1,51,1,1,0,Schematic,ideal,0.004,2019_Mar_17_1941,Face-ClassificationImage,3.0.4,60.254754934042296,
26,0,52,0,1,0,Schematic,ideal,0.004,2019_Mar_17_1941,Face-ClassificationImage,3.0.4,60.254754934042296,
26,1,53,1,0,0,Schematic,ideal,0.004,2019_Mar_17_1941,Face-ClassificationImage,3.0.4,60.254754934042296,
27,0,54,1,1,0,Schematic,ideal,0.004,2019_Mar_17_1941,Face-ClassificationImage,3.0.4,60.254754934042296,
27,1,55,0,1,0,Schematic,ideal,0.004,2019_Mar_17_1941,Face-ClassificationImage,3.0.4,60.254754934042296,
28,0,56,0,0,0,Schematic,ideal,0.004,2019_Mar_17_1941,Face-ClassificationImage,3.0.4,60.254754934042296,
28,1,57,1,1,0,Schematic,ideal,0.004,2019_Mar_17_1941,Face-ClassificationImage,3.0.4,60.254754934042296,
29,0,58,1,1,0,Schematic,ideal,0.004,2019_Mar_17_1941,Face-ClassificationImage,3.0.4,60.254754934042296,
29,1,59,0,1,0,Schematic,ideal,0.004,2019_Mar_17_1941,Face-ClassificationImage,3.0.4,60.254754934042296,
30,0,60,0,1,0,Schematic,ideal,0.004,2019_Mar_17_1941,Face-ClassificationImage,3.0.4,60.254754934042296,
30,1,61,1,1,0,Schematic,ideal,0.004,2019_Mar_17_1941,Face-ClassificationImage,3.0.4,60.254754934042296,
31,0,62,1,1,0,Schematic,ideal,0.004,2019_Mar_17_1941,Face-ClassificationImage,3.0.4,60.254754934042296,
31,1,63,0,1,0,Schematic,ideal,0.004,2019_Mar_17_1941,Face-ClassificationImage,3.0.4,60.254754934042296,
32,0,64,0,0,0,Schematic,ideal,0.004,2019_Mar_17_1941,Face-ClassificationImage,3.0.4,60.254754934042296,
32,1,65,1,1,0,Schematic,ideal,0.004,2019_Mar_17_1941,Face-ClassificationImage,3.0.4,60.254754934042296,
33,0,66,0,1,0,Schematic,ideal,0.004,2019_Mar_17_1941,Face-ClassificationImage,3.0.4,60.254754934042296,
33,1,67,1,1,0,Schematic,ideal,0.004,2019_Mar_17_1941,Face-ClassificationImage,3.0.4,60.254754934042296,
34,0,68,1,1,0,Schematic,ideal,0.004,2019_Mar_17_1941,Face-ClassificationImage,3.0.4,60.254754934042296,
34,1,69,0,1,0,Schematic,ideal,0.004,2019_Mar_17_1941,Face-ClassificationImage,3.0.4,60.254754934042296,
35,0,70,0,1,0,Schematic,ideal,0.004,2019_Mar_17_1941,Face-ClassificationImage,3.0.4,60.254754934042296,
35,1,71,1,0,0,Schematic,ideal,0.004,2019_Mar_17_1941,Face-ClassificationImage,3.0.4,60.254754934042296,
36,0,72,1,1,0,Schematic,ideal,0.004,2019_Mar_17_1941,Face-ClassificationImage,3.0.4,60.254754934042296,
36,1,73,0,1,0,Schematic,ideal,0.004,2019_Mar_17_1941,Face-ClassificationImage,3.0.4,60.254754934042296,
37,0,74,1,1,0,Schematic,ideal,0.004,2019_Mar_17_1941,Face-ClassificationImage,3.0.4,60.254754934042296,
37,1,75,0,1,0,Schematic,ideal,0.004,2019_Mar_17_1941,Face-ClassificationImage,3.0.4,60.254754934042296,
38,0,76,0,0,0,Schematic,ideal,0.004,2019_Mar_17_1941,Face-ClassificationImage,3.0.4,60.254754934042296,
38,1,77,1,0,0,Schematic,ideal,0.004,2019_Mar_17_1941,Face-ClassificationImage,3.0.4,60.254754934042296,
39,0,78,0,1,0,Schematic,ideal,0.004,2019_Mar_17_1941,Face-ClassificationImage,3.0.4,60.254754934042296,
39,1,79,1,1,0,Schematic,ideal,0.004,2019_Mar_17_1941,Face-ClassificationImage,3.0.4,60.254754934042296,
40,0,80,0,1,0,Schematic,ideal,0.004,2019_Mar_17_1941,Face-ClassificationImage,3.0.4,60.254754934042296,
40,1,81,1,1,0,Schematic,ideal,0.004,2019_Mar_17_1941,Face-ClassificationImage,3.0.4,60.254754934042296,
41,0,82,1,0,0,Schematic,ideal,0.004,2019_Mar_17_1941,Face-ClassificationImage,3.0.4,60.254754934042296,
41,1,83,0,0,0,Schematic,ideal,0.004,2019_Mar_17_1941,Face-ClassificationImage,3.0.4,60.254754934042296,
42,0,84,0,1,0,Schematic,ideal,0.004,2019_Mar_17_1941,Face-ClassificationImage,3.0.4,60.254754934042296,
42,1,85,1,1,0,Schematic,ideal,0.004,2019_Mar_17_1941,Face-ClassificationImage,3.0.4,60.254754934042296,
43,0,86,0,1,0,Schematic,ideal,0.004,2019_Mar_17_1941,Face-ClassificationImage,3.0.4,60.254754934042296,
43,1,87,1,0,0,Schematic,ideal,0.004,2019_Mar_17_1941,Face-ClassificationImage,3.0.4,60.254754934042296,
44,0,88,1,1,0,Schematic,ideal,0.004,2019_Mar_17_1941,Face-ClassificationImage,3.0.4,60.254754934042296,
44,1,89,0,1,0,Schematic,ideal,0.004,2019_Mar_17_1941,Face-ClassificationImage,3.0.4,60.254754934042296,
45,0,90,0,1,0,Schematic,ideal,0.004,2019_Mar_17_1941,Face-ClassificationImage,3.0.4,60.254754934042296,
45,1,91,1,1,0,Schematic,ideal,0.004,2019_Mar_17_1941,Face-ClassificationImage,3.0.4,60.254754934042296,
46,0,92,0,1,0,Schematic,ideal,0.004,2019_Mar_17_1941,Face-ClassificationImage,3.0.4,60.254754934042296,
46,1,93,1,1,0,Schematic,ideal,0.004,2019_Mar_17_1941,Face-ClassificationImage,3.0.4,60.254754934042296,
47,0,94,0,1,0,Schematic,ideal,0.004,2019_Mar_17_1941,Face-ClassificationImage,3.0.4,60.254754934042296,
47,1,95,1,1,0,Schematic,ideal,0.004,2019_Mar_17_1941,Face-ClassificationImage,3.0.4,60.254754934042296,
48,0,96,1,0,0,Schematic,ideal,0.004,2019_Mar_17_1941,Face-ClassificationImage,3.0.4,60.254754934042296,
48,1,97,0,1,0,Schematic,ideal,0.004,2019_Mar_17_1941,Face-ClassificationImage,3.0.4,60.254754934042296,
49,0,98,0,1,0,Schematic,ideal,0.004,2019_Mar_17_1941,Face-ClassificationImage,3.0.4,60.254754934042296,
49,1,99,1,1,0,Schematic,ideal,0.004,2019_Mar_17_1941,Face-ClassificationImage,3.0.4,60.254754934042296,
50,0,100,1,0,0,Schematic,ideal,0.004,2019_Mar_17_1941,Face-ClassificationImage,3.0.4,60.254754934042296,
50,1,101,0,1,0,Schematic,ideal,0.004,2019_Mar_17_1941,Face-ClassificationImage,3.0.4,60.254754934042296,
51,0,102,1,0,0,Schematic,ideal,0.004,2019_Mar_17_1941,Face-ClassificationImage,3.0.4,60.254754934042296,
51,1,103,0,1,0,Schematic,ideal,0.004,2019_Mar_17_1941,Face-ClassificationImage,3.0.4,60.254754934042296,
52,0,104,1,0,0,Schematic,ideal,0.004,2019_Mar_17_1941,Face-ClassificationImage,3.0.4,60.254754934042296,
52,1,105,0,1,0,Schematic,ideal,0.004,2019_Mar_17_1941,Face-ClassificationImage,3.0.4,60.254754934042296,
53,0,106,0,1,0,Schematic,ideal,0.004,2019_Mar_17_1941,Face-ClassificationImage,3.0.4,60.254754934042296,
53,1,107,1,0,0,Schematic,ideal,0.004,2019_Mar_17_1941,Face-ClassificationImage,3.0.4,60.254754934042296,
54,0,108,1,1,0,Schematic,ideal,0.004,2019_Mar_17_1941,Face-ClassificationImage,3.0.4,60.254754934042296,
54,1,109,0,1,0,Schematic,ideal,0.004,2019_Mar_17_1941,Face-ClassificationImage,3.0.4,60.254754934042296,
55,0,110,0,1,0,Schematic,ideal,0.004,2019_Mar_17_1941,Face-ClassificationImage,3.0.4,60.254754934042296,
55,1,111,1,1,0,Schematic,ideal,0.004,2019_Mar_17_1941,Face-ClassificationImage,3.0.4,60.254754934042296,
56,0,112,0,0,0,Schematic,ideal,0.004,2019_Mar_17_1941,Face-ClassificationImage,3.0.4,60.254754934042296,
56,1,113,1,1,0,Schematic,ideal,0.004,2019_Mar_17_1941,Face-ClassificationImage,3.0.4,60.254754934042296,
57,0,114,1,0,0,Schematic,ideal,0.004,2019_Mar_17_1941,Face-ClassificationImage,3.0.4,60.254754934042296,
57,1,115,0,0,0,Schematic,ideal,0.004,2019_Mar_17_1941,Face-ClassificationImage,3.0.4,60.254754934042296,
58,0,116,1,0,0,Schematic,ideal,0.004,2019_Mar_17_1941,Face-ClassificationImage,3.0.4,60.254754934042296,
58,1,117,0,1,0,Schematic,ideal,0.004,2019_Mar_17_1941,Face-ClassificationImage,3.0.4,60.254754934042296,
59,0,118,1,1,0,Schematic,ideal,0.004,2019_Mar_17_1941,Face-ClassificationImage,3.0.4,60.254754934042296,
59,1,119,0,1,0,Schematic,ideal,0.004,2019_Mar_17_1941,Face-ClassificationImage,3.0.4,60.254754934042296,
60,0,120,0,0,0,Schematic,ideal,0.004,2019_Mar_17_1941,Face-ClassificationImage,3.0.4,60.254754934042296,
60,1,121,1,0,0,Schematic,ideal,0.004,2019_Mar_17_1941,Face-ClassificationImage,3.0.4,60.254754934042296,
61,0,122,1,1,0,Schematic,ideal,0.004,2019_Mar_17_1941,Face-ClassificationImage,3.0.4,60.254754934042296,
61,1,123,0,1,0,Schematic,ideal,0.004,2019_Mar_17_1941,Face-ClassificationImage,3.0.4,60.254754934042296,
62,0,124,1,0,0,Schematic,ideal,0.004,2019_Mar_17_1941,Face-ClassificationImage,3.0.4,60.254754934042296,
62,1,125,0,1,0,Schematic,ideal,0.004,2019_Mar_17_1941,Face-ClassificationImage,3.0.4,60.254754934042296,
63,0,126,1,0,0,Schematic,ideal,0.004,2019_Mar_17_1941,Face-ClassificationImage,3.0.4,60.254754934042296,
63,1,127,0,1,0,Schematic,ideal,0.004,2019_Mar_17_1941,Face-ClassificationImage,3.0.4,60.254754934042296,
64,0,128,1,1,0,Schematic,ideal,0.004,2019_Mar_17_1941,Face-ClassificationImage,3.0.4,60.254754934042296,
64,1,129,0,1,0,Schematic,ideal,0.004,2019_Mar_17_1941,Face-ClassificationImage,3.0.4,60.254754934042296,
65,0,130,1,0,0,Schematic,ideal,0.004,2019_Mar_17_1941,Face-ClassificationImage,3.0.4,60.254754934042296,
65,1,131,0,1,0,Schematic,ideal,0.004,2019_Mar_17_1941,Face-ClassificationImage,3.0.4,60.254754934042296,
66,0,132,0,1,0,Schematic,ideal,0.004,2019_Mar_17_1941,Face-ClassificationImage,3.0.4,60.254754934042296,
66,1,133,1,0,0,Schematic,ideal,0.004,2019_Mar_17_1941,Face-ClassificationImage,3.0.4,60.254754934042296,
67,0,134,1,1,0,Schematic,ideal,0.004,2019_Mar_17_1941,Face-ClassificationImage,3.0.4,60.254754934042296,
67,1,135,0,0,0,Schematic,ideal,0.004,2019_Mar_17_1941,Face-ClassificationImage,3.0.4,60.254754934042296,
68,0,136,1,1,0,Schematic,ideal,0.004,2019_Mar_17_1941,Face-ClassificationImage,3.0.4,60.254754934042296,
68,1,137,0,0,0,Schematic,ideal,0.004,2019_Mar_17_1941,Face-ClassificationImage,3.0.4,60.254754934042296,
69,0,138,0,1,0,Schematic,ideal,0.004,2019_Mar_17_1941,Face-ClassificationImage,3.0.4,60.254754934042296,
69,1,139,1,1,0,Schematic,ideal,0.004,2019_Mar_17_1941,Face-ClassificationImage,3.0.4,60.254754934042296,
70,0,140,0,1,0,Schematic,ideal,0.004,2019_Mar_17_1941,Face-ClassificationImage,3.0.4,60.254754934042296,
70,1,141,1,1,0,Schematic,ideal,0.004,2019_Mar_17_1941,Face-ClassificationImage,3.0.4,60.254754934042296,
71,0,142,0,1,0,Schematic,ideal,0.004,2019_Mar_17_1941,Face-ClassificationImage,3.0.4,60.254754934042296,
71,1,143,1,0,0,Schematic,ideal,0.004,2019_Mar_17_1941,Face-ClassificationImage,3.0.4,60.254754934042296,
72,0,144,0,1,0,Schematic,ideal,0.004,2019_Mar_17_1941,Face-ClassificationImage,3.0.4,60.254754934042296,
72,1,145,1,1,0,Schematic,ideal,0.004,2019_Mar_17_1941,Face-ClassificationImage,3.0.4,60.254754934042296,
73,0,146,1,1,0,Schematic,ideal,0.004,2019_Mar_17_1941,Face-ClassificationImage,3.0.4,60.254754934042296,
73,1,147,0,1,0,Schematic,ideal,0.004,2019_Mar_17_1941,Face-ClassificationImage,3.0.4,60.254754934042296,
74,0,148,1,1,0,Schematic,ideal,0.004,2019_Mar_17_1941,Face-ClassificationImage,3.0.4,60.254754934042296,
74,1,149,0,1,0,Schematic,ideal,0.004,2019_Mar_17_1941,Face-ClassificationImage,3.0.4,60.254754934042296,
75,0,150,0,0,0,Schematic,ideal,0.004,2019_Mar_17_1941,Face-ClassificationImage,3.0.4,60.254754934042296,
75,1,151,1,1,0,Schematic,ideal,0.004,2019_Mar_17_1941,Face-ClassificationImage,3.0.4,60.254754934042296,
76,0,152,0,1,0,Schematic,ideal,0.004,2019_Mar_17_1941,Face-ClassificationImage,3.0.4,60.254754934042296,
76,1,153,1,1,0,Schematic,ideal,0.004,2019_Mar_17_1941,Face-ClassificationImage,3.0.4,60.254754934042296,
77,0,154,0,0,0,Schematic,ideal,0.004,2019_Mar_17_1941,Face-ClassificationImage,3.0.4,60.254754934042296,
77,1,155,1,0,0,Schematic,ideal,0.004,2019_Mar_17_1941,Face-ClassificationImage,3.0.4,60.254754934042296,
78,0,156,0,1,0,Schematic,ideal,0.004,2019_Mar_17_1941,Face-ClassificationImage,3.0.4,60.254754934042296,
78,1,157,1,1,0,Schematic,ideal,0.004,2019_Mar_17_1941,Face-ClassificationImage,3.0.4,60.254754934042296,
79,0,158,1,1,0,Schematic,ideal,0.004,2019_Mar_17_1941,Face-ClassificationImage,3.0.4,60.254754934042296,
79,1,159,0,1,0,Schematic,ideal,0.004,2019_Mar_17_1941,Face-ClassificationImage,3.0.4,60.254754934042296,
80,0,160,0,0,0,Schematic,ideal,0.004,2019_Mar_17_1941,Face-ClassificationImage,3.0.4,60.254754934042296,
80,1,161,1,1,0,Schematic,ideal,0.004,2019_Mar_17_1941,Face-ClassificationImage,3.0.4,60.254754934042296,
81,0,162,0,1,0,Schematic,ideal,0.004,2019_Mar_17_1941,Face-ClassificationImage,3.0.4,60.254754934042296,
81,1,163,1,0,0,Schematic,ideal,0.004,2019_Mar_17_1941,Face-ClassificationImage,3.0.4,60.254754934042296,
82,0,164,1,1,0,Schematic,ideal,0.004,2019_Mar_17_1941,Face-ClassificationImage,3.0.4,60.254754934042296,
82,1,165,0,1,0,Schematic,ideal,0.004,2019_Mar_17_1941,Face-ClassificationImage,3.0.4,60.254754934042296,
83,0,166,1,0,0,Schematic,ideal,0.004,2019_Mar_17_1941,Face-ClassificationImage,3.0.4,60.254754934042296,
83,1,167,0,1,0,Schematic,ideal,0.004,2019_Mar_17_1941,Face-ClassificationImage,3.0.4,60.254754934042296,
84,0,168,1,0,0,Schematic,ideal,0.004,2019_Mar_17_1941,Face-ClassificationImage,3.0.4,60.254754934042296,
84,1,169,0,0,0,Schematic,ideal,0.004,2019_Mar_17_1941,Face-ClassificationImage,3.0.4,60.254754934042296,
85,0,170,1,1,0,Schematic,ideal,0.004,2019_Mar_17_1941,Face-ClassificationImage,3.0.4,60.254754934042296,
85,1,171,0,1,0,Schematic,ideal,0.004,2019_Mar_17_1941,Face-ClassificationImage,3.0.4,60.254754934042296,
86,0,172,0,1,0,Schematic,ideal,0.004,2019_Mar_17_1941,Face-ClassificationImage,3.0.4,60.254754934042296,
86,1,173,1,0,0,Schematic,ideal,0.004,2019_Mar_17_1941,Face-ClassificationImage,3.0.4,60.254754934042296,
87,0,174,0,1,0,Schematic,ideal,0.004,2019_Mar_17_1941,Face-ClassificationImage,3.0.4,60.254754934042296,
87,1,175,1,1,0,Schematic,ideal,0.004,2019_Mar_17_1941,Face-ClassificationImage,3.0.4,60.254754934042296,
88,0,176,0,1,0,Schematic,ideal,0.004,2019_Mar_17_1941,Face-ClassificationImage,3.0.4,60.254754934042296,
88,1,177,1,1,0,Schematic,ideal,0.004,2019_Mar_17_1941,Face-ClassificationImage,3.0.4,60.254754934042296,
89,0,178,0,1,0,Schematic,ideal,0.004,2019_Mar_17_1941,Face-ClassificationImage,3.0.4,60.254754934042296,
89,1,179,1,0,0,Schematic,ideal,0.004,2019_Mar_17_1941,Face-ClassificationImage,3.0.4,60.254754934042296,
90,0,180,1,0,0,Schematic,ideal,0.004,2019_Mar_17_1941,Face-ClassificationImage,3.0.4,60.254754934042296,
90,1,181,0,1,0,Schematic,ideal,0.004,2019_Mar_17_1941,Face-ClassificationImage,3.0.4,60.254754934042296,
91,0,182,0,1,0,Schematic,ideal,0.004,2019_Mar_17_1941,Face-ClassificationImage,3.0.4,60.254754934042296,
91,1,183,1,1,0,Schematic,ideal,0.004,2019_Mar_17_1941,Face-ClassificationImage,3.0.4,60.254754934042296,
92,0,184,1,1,0,Schematic,ideal,0.004,2019_Mar_17_1941,Face-ClassificationImage,3.0.4,60.254754934042296,
92,1,185,0,0,0,Schematic,ideal,0.004,2019_Mar_17_1941,Face-ClassificationImage,3.0.4,60.254754934042296,
93,0,186,0,1,0,Schematic,ideal,0.004,2019_Mar_17_1941,Face-ClassificationImage,3.0.4,60.254754934042296,
93,1,187,1,0,0,Schematic,ideal,0.004,2019_Mar_17_1941,Face-ClassificationImage,3.0.4,60.254754934042296,
94,0,188,1,1,0,Schematic,ideal,0.004,2019_Mar_17_1941,Face-ClassificationImage,3.0.4,60.254754934042296,
94,1,189,0,0,0,Schematic,ideal,0.004,2019_Mar_17_1941,Face-ClassificationImage,3.0.4,60.254754934042296,
95,0,190,1,0,0,Schematic,ideal,0.004,2019_Mar_17_1941,Face-ClassificationImage,3.0.4,60.254754934042296,
95,1,191,0,0,0,Schematic,ideal,0.004,2019_Mar_17_1941,Face-ClassificationImage,3.0.4,60.254754934042296,
96,0,192,0,0,0,Schematic,ideal,0.004,2019_Mar_17_1941,Face-ClassificationImage,3.0.4,60.254754934042296,
96,1,193,1,0,0,Schematic,ideal,0.004,2019_Mar_17_1941,Face-ClassificationImage,3.0.4,60.254754934042296,
97,0,194,1,1,0,Schematic,ideal,0.004,2019_Mar_17_1941,Face-ClassificationImage,3.0.4,60.254754934042296,
97,1,195,0,0,0,Schematic,ideal,0.004,2019_Mar_17_1941,Face-ClassificationImage,3.0.4,60.254754934042296,
98,0,196,1,1,0,Schematic,ideal,0.004,2019_Mar_17_1941,Face-ClassificationImage,3.0.4,60.254754934042296,
98,1,197,0,0,0,Schematic,ideal,0.004,2019_Mar_17_1941,Face-ClassificationImage,3.0.4,60.254754934042296,
99,0,198,0,1,0,Schematic,ideal,0.004,2019_Mar_17_1941,Face-ClassificationImage,3.0.4,60.254754934042296,
99,1,199,1,0,0,Schematic,ideal,0.004,2019_Mar_17_1941,Face-ClassificationImage,3.0.4,60.254754934042296,
100,0,200,1,1,0,Schematic,ideal,0.004,2019_Mar_17_1941,Face-ClassificationImage,3.0.4,60.254754934042296,
100,1,201,0,1,0,Schematic,ideal,0.004,2019_Mar_17_1941,Face-ClassificationImage,3.0.4,60.254754934042296,
101,0,202,1,1,0,Schematic,ideal,0.004,2019_Mar_17_1941,Face-ClassificationImage,3.0.4,60.254754934042296,
101,1,203,0,1,0,Schematic,ideal,0.004,2019_Mar_17_1941,Face-ClassificationImage,3.0.4,60.254754934042296,
102,0,204,1,1,0,Schematic,ideal,0.004,2019_Mar_17_1941,Face-ClassificationImage,3.0.4,60.254754934042296,
102,1,205,0,0,0,Schematic,ideal,0.004,2019_Mar_17_1941,Face-ClassificationImage,3.0.4,60.254754934042296,
103,0,206,1,1,0,Schematic,ideal,0.004,2019_Mar_17_1941,Face-ClassificationImage,3.0.4,60.254754934042296,
103,1,207,0,0,0,Schematic,ideal,0.004,2019_Mar_17_1941,Face-ClassificationImage,3.0.4,60.254754934042296,
104,0,208,0,1,0,Schematic,ideal,0.004,2019_Mar_17_1941,Face-ClassificationImage,3.0.4,60.254754934042296,
104,1,209,1,0,0,Schematic,ideal,0.004,2019_Mar_17_1941,Face-ClassificationImage,3.0.4,60.254754934042296,
105,0,210,0,0,0,Schematic,ideal,0.004,2019_Mar_17_1941,Face-ClassificationImage,3.0.4,60.254754934042296,
105,1,211,1,1,0,Schematic,ideal,0.004,2019_Mar_17_1941,Face-ClassificationImage,3.0.4,60.254754934042296,
106,0,212,1,1,0,Schematic,ideal,0.004,2019_Mar_17_1941,Face-ClassificationImage,3.0.4,60.254754934042296,
106,1,213,0,1,0,Schematic,ideal,0.004,2019_Mar_17_1941,Face-ClassificationImage,3.0.4,60.254754934042296,
107,0,214,0,1,0,Schematic,ideal,0.004,2019_Mar_17_1941,Face-ClassificationImage,3.0.4,60.254754934042296,
107,1,215,1,1,0,Schematic,ideal,0.004,2019_Mar_17_1941,Face-ClassificationImage,3.0.4,60.254754934042296,
108,0,216,1,0,0,Schematic,ideal,0.004,2019_Mar_17_1941,Face-ClassificationImage,3.0.4,60.254754934042296,
108,1,217,0,1,0,Schematic,ideal,0.004,2019_Mar_17_1941,Face-ClassificationImage,3.0.4,60.254754934042296,
109,0,218,0,1,0,Schematic,ideal,0.004,2019_Mar_17_1941,Face-ClassificationImage,3.0.4,60.254754934042296,
109,1,219,1,1,0,Schematic,ideal,0.004,2019_Mar_17_1941,Face-ClassificationImage,3.0.4,60.254754934042296,
110,0,220,0,1,0,Schematic,ideal,0.004,2019_Mar_17_1941,Face-ClassificationImage,3.0.4,60.254754934042296,
110,1,221,1,0,0,Schematic,ideal,0.004,2019_Mar_17_1941,Face-ClassificationImage,3.0.4,60.254754934042296,
111,0,222,1,0,0,Schematic,ideal,0.004,2019_Mar_17_1941,Face-ClassificationImage,3.0.4,60.254754934042296,
111,1,223,0,0,0,Schematic,ideal,0.004,2019_Mar_17_1941,Face-ClassificationImage,3.0.4,60.254754934042296,
112,0,224,1,1,0,Schematic,ideal,0.004,2019_Mar_17_1941,Face-ClassificationImage,3.0.4,60.254754934042296,
112,1,225,0,0,0,Schematic,ideal,0.004,2019_Mar_17_1941,Face-ClassificationImage,3.0.4,60.254754934042296,
113,0,226,1,1,0,Schematic,ideal,0.004,2019_Mar_17_1941,Face-ClassificationImage,3.0.4,60.254754934042296,
113,1,227,0,0,0,Schematic,ideal,0.004,2019_Mar_17_1941,Face-ClassificationImage,3.0.4,60.254754934042296,
114,0,228,1,1,0,Schematic,ideal,0.004,2019_Mar_17_1941,Face-ClassificationImage,3.0.4,60.254754934042296,
114,1,229,0,1,0,Schematic,ideal,0.004,2019_Mar_17_1941,Face-ClassificationImage,3.0.4,60.254754934042296,
115,0,230,1,0,0,Schematic,ideal,0.004,2019_Mar_17_1941,Face-ClassificationImage,3.0.4,60.254754934042296,
115,1,231,0,1,0,Schematic,ideal,0.004,2019_Mar_17_1941,Face-ClassificationImage,3.0.4,60.254754934042296,
116,0,232,0,1,0,Schematic,ideal,0.004,2019_Mar_17_1941,Face-ClassificationImage,3.0.4,60.254754934042296,
116,1,233,1,0,0,Schematic,ideal,0.004,2019_Mar_17_1941,Face-ClassificationImage,3.0.4,60.254754934042296,
117,0,234,1,0,0,Schematic,ideal,0.004,2019_Mar_17_1941,Face-ClassificationImage,3.0.4,60.254754934042296,
117,1,235,0,1,0,Schematic,ideal,0.004,2019_Mar_17_1941,Face-ClassificationImage,3.0.4,60.254754934042296,
118,0,236,1,0,0,Schematic,ideal,0.004,2019_Mar_17_1941,Face-ClassificationImage,3.0.4,60.254754934042296,
118,1,237,0,1,0,Schematic,ideal,0.004,2019_Mar_17_1941,Face-ClassificationImage,3.0.4,60.254754934042296,
119,0,238,0,1,0,Schematic,ideal,0.004,2019_Mar_17_1941,Face-ClassificationImage,3.0.4,60.254754934042296,
119,1,239,1,1,0,Schematic,ideal,0.004,2019_Mar_17_1941,Face-ClassificationImage,3.0.4,60.254754934042296,
120,0,240,0,0,0,Schematic,ideal,0.004,2019_Mar_17_1941,Face-ClassificationImage,3.0.4,60.254754934042296,
120,1,241,1,1,0,Schematic,ideal,0.004,2019_Mar_17_1941,Face-ClassificationImage,3.0.4,60.254754934042296,
121,0,242,0,1,0,Schematic,ideal,0.004,2019_Mar_17_1941,Face-ClassificationImage,3.0.4,60.254754934042296,
121,1,243,1,1,0,Schematic,ideal,0.004,2019_Mar_17_1941,Face-ClassificationImage,3.0.4,60.254754934042296,
122,0,244,1,1,0,Schematic,ideal,0.004,2019_Mar_17_1941,Face-ClassificationImage,3.0.4,60.254754934042296,
122,1,245,0,1,0,Schematic,ideal,0.004,2019_Mar_17_1941,Face-ClassificationImage,3.0.4,60.254754934042296,
123,0,246,0,0,0,Schematic,ideal,0.004,2019_Mar_17_1941,Face-ClassificationImage,3.0.4,60.254754934042296,
123,1,247,1,1,0,Schematic,ideal,0.004,2019_Mar_17_1941,Face-ClassificationImage,3.0.4,60.254754934042296,
124,0,248,0,0,0,Schematic,ideal,0.004,2019_Mar_17_1941,Face-ClassificationImage,3.0.4,60.254754934042296,
124,1,249,1,1,0,Schematic,ideal,0.004,2019_Mar_17_1941,Face-ClassificationImage,3.0.4,60.254754934042296,
125,0,250,1,1,0,Schematic,ideal,0.004,2019_Mar_17_1941,Face-ClassificationImage,3.0.4,60.254754934042296,
125,1,251,0,1,0,Schematic,ideal,0.004,2019_Mar_17_1941,Face-ClassificationImage,3.0.4,60.254754934042296,
126,0,252,1,1,0,Schematic,ideal,0.004,2019_Mar_17_1941,Face-ClassificationImage,3.0.4,60.254754934042296,
126,1,253,0,1,0,Schematic,ideal,0.004,2019_Mar_17_1941,Face-ClassificationImage,3.0.4,60.254754934042296,
127,0,254,0,1,0,Schematic,ideal,0.004,2019_Mar_17_1941,Face-ClassificationImage,3.0.4,60.254754934042296,
127,1,255,1,1,0,Schematic,ideal,0.004,2019_Mar_17_1941,Face-ClassificationImage,3.0.4,60.254754934042296,
128,0,256,1,1,0,Schematic,ideal,0.004,2019_Mar_17_1941,Face-ClassificationImage,3.0.4,60.254754934042296,
128,1,257,0,1,0,Schematic,ideal,0.004,2019_Mar_17_1941,Face-ClassificationImage,3.0.4,60.254754934042296,
129,0,258,1,1,0,Schematic,ideal,0.004,2019_Mar_17_1941,Face-ClassificationImage,3.0.4,60.254754934042296,
129,1,259,0,1,0,Schematic,ideal,0.004,2019_Mar_17_1941,Face-ClassificationImage,3.0.4,60.254754934042296,
130,0,260,1,1,0,Schematic,ideal,0.004,2019_Mar_17_1941,Face-ClassificationImage,3.0.4,60.254754934042296,
130,1,261,0,1,0,Schematic,ideal,0.004,2019_Mar_17_1941,Face-ClassificationImage,3.0.4,60.254754934042296,
131,0,262,0,1,0,Schematic,ideal,0.004,2019_Mar_17_1941,Face-ClassificationImage,3.0.4,60.254754934042296,
131,1,263,1,1,0,Schematic,ideal,0.004,2019_Mar_17_1941,Face-ClassificationImage,3.0.4,60.254754934042296,
132,0,264,1,0,0,Schematic,ideal,0.004,2019_Mar_17_1941,Face-ClassificationImage,3.0.4,60.254754934042296,
132,1,265,0,1,0,Schematic,ideal,0.004,2019_Mar_17_1941,Face-ClassificationImage,3.0.4,60.254754934042296,
133,0,266,0,0,0,Schematic,ideal,0.004,2019_Mar_17_1941,Face-ClassificationImage,3.0.4,60.254754934042296,
133,1,267,1,1,0,Schematic,ideal,0.004,2019_Mar_17_1941,Face-ClassificationImage,3.0.4,60.254754934042296,
134,0,268,0,1,0,Schematic,ideal,0.004,2019_Mar_17_1941,Face-ClassificationImage,3.0.4,60.254754934042296,
134,1,269,1,1,0,Schematic,ideal,0.004,2019_Mar_17_1941,Face-ClassificationImage,3.0.4,60.254754934042296,
135,0,270,0,0,0,Schematic,ideal,0.004,2019_Mar_17_1941,Face-ClassificationImage,3.0.4,60.254754934042296,
135,1,271,1,1,0,Schematic,ideal,0.004,2019_Mar_17_1941,Face-ClassificationImage,3.0.4,60.254754934042296,
136,0,272,0,0,0,Schematic,ideal,0.004,2019_Mar_17_1941,Face-ClassificationImage,3.0.4,60.254754934042296,
136,1,273,1,1,0,Schematic,ideal,0.004,2019_Mar_17_1941,Face-ClassificationImage,3.0.4,60.254754934042296,
137,0,274,1,0,0,Schematic,ideal,0.004,2019_Mar_17_1941,Face-ClassificationImage,3.0.4,60.254754934042296,
137,1,275,0,0,0,Schematic,ideal,0.004,2019_Mar_17_1941,Face-ClassificationImage,3.0.4,60.254754934042296,
138,0,276,0,1,0,Schematic,ideal,0.004,2019_Mar_17_1941,Face-ClassificationImage,3.0.4,60.254754934042296,
138,1,277,1,1,0,Schematic,ideal,0.004,2019_Mar_17_1941,Face-ClassificationImage,3.0.4,60.254754934042296,
139,0,278,0,1,0,Schematic,ideal,0.004,2019_Mar_17_1941,Face-ClassificationImage,3.0.4,60.254754934042296,
139,1,279,1,1,0,Schematic,ideal,0.004,2019_Mar_17_1941,Face-ClassificationImage,3.0.4,60.254754934042296,
140,0,280,1,1,0,Schematic,ideal,0.004,2019_Mar_17_1941,Face-ClassificationImage,3.0.4,60.254754934042296,
140,1,281,0,1,0,Schematic,ideal,0.004,2019_Mar_17_1941,Face-ClassificationImage,3.0.4,60.254754934042296,
141,0,282,1,1,0,Schematic,ideal,0.004,2019_Mar_17_1941,Face-ClassificationImage,3.0.4,60.254754934042296,
141,1,283,0,1,0,Schematic,ideal,0.004,2019_Mar_17_1941,Face-ClassificationImage,3.0.4,60.254754934042296,
142,0,284,0,1,0,Schematic,ideal,0.004,2019_Mar_17_1941,Face-ClassificationImage,3.0.4,60.254754934042296,
142,1,285,1,1,0,Schematic,ideal,0.004,2019_Mar_17_1941,Face-ClassificationImage,3.0.4,60.254754934042296,
143,0,286,0,1,0,Schematic,ideal,0.004,2019_Mar_17_1941,Face-ClassificationImage,3.0.4,60.254754934042296,
143,1,287,1,1,0,Schematic,ideal,0.004,2019_Mar_17_1941,Face-ClassificationImage,3.0.4,60.254754934042296,
144,0,288,0,0,0,Schematic,ideal,0.004,2019_Mar_17_1941,Face-ClassificationImage,3.0.4,60.254754934042296,
144,1,289,1,0,0,Schematic,ideal,0.004,2019_Mar_17_1941,Face-ClassificationImage,3.0.4,60.254754934042296,
145,0,290,0,1,0,Schematic,ideal,0.004,2019_Mar_17_1941,Face-ClassificationImage,3.0.4,60.254754934042296,
145,1,291,1,1,0,Schematic,ideal,0.004,2019_Mar_17_1941,Face-ClassificationImage,3.0.4,60.254754934042296,
146,0,292,0,0,0,Schematic,ideal,0.004,2019_Mar_17_1941,Face-ClassificationImage,3.0.4,60.254754934042296,
146,1,293,1,1,0,Schematic,ideal,0.004,2019_Mar_17_1941,Face-ClassificationImage,3.0.4,60.254754934042296,
147,0,294,0,1,0,Schematic,ideal,0.004,2019_Mar_17_1941,Face-ClassificationImage,3.0.4,60.254754934042296,
147,1,295,1,1,0,Schematic,ideal,0.004,2019_Mar_17_1941,Face-ClassificationImage,3.0.4,60.254754934042296,
148,0,296,0,1,0,Schematic,ideal,0.004,2019_Mar_17_1941,Face-ClassificationImage,3.0.4,60.254754934042296,
148,1,297,1,0,0,Schematic,ideal,0.004,2019_Mar_17_1941,Face-ClassificationImage,3.0.4,60.254754934042296,
149,0,298,0,1,0,Schematic,ideal,0.004,2019_Mar_17_1941,Face-ClassificationImage,3.0.4,60.254754934042296,
149,1,299,1,0,0,Schematic,ideal,0.004,2019_Mar_17_1941,Face-ClassificationImage,3.0.4,60.254754934042296,
150,0,300,0,0,0,Schematic,ideal,0.004,2019_Mar_17_1941,Face-ClassificationImage,3.0.4,60.254754934042296,
150,1,301,1,0,0,Schematic,ideal,0.004,2019_Mar_17_1941,Face-ClassificationImage,3.0.4,60.254754934042296,
151,0,302,0,1,0,Schematic,ideal,0.004,2019_Mar_17_1941,Face-ClassificationImage,3.0.4,60.254754934042296,
151,1,303,1,0,0,Schematic,ideal,0.004,2019_Mar_17_1941,Face-ClassificationImage,3.0.4,60.254754934042296,
152,0,304,0,0,0,Schematic,ideal,0.004,2019_Mar_17_1941,Face-ClassificationImage,3.0.4,60.254754934042296,
152,1,305,1,1,0,Schematic,ideal,0.004,2019_Mar_17_1941,Face-ClassificationImage,3.0.4,60.254754934042296,
153,0,306,1,1,0,Schematic,ideal,0.004,2019_Mar_17_1941,Face-ClassificationImage,3.0.4,60.254754934042296,
153,1,307,0,1,0,Schematic,ideal,0.004,2019_Mar_17_1941,Face-ClassificationImage,3.0.4,60.254754934042296,
154,0,308,1,1,0,Schematic,ideal,0.004,2019_Mar_17_1941,Face-ClassificationImage,3.0.4,60.254754934042296,
154,1,309,0,0,0,Schematic,ideal,0.004,2019_Mar_17_1941,Face-ClassificationImage,3.0.4,60.254754934042296,
155,0,310,1,0,0,Schematic,ideal,0.004,2019_Mar_17_1941,Face-ClassificationImage,3.0.4,60.254754934042296,
155,1,311,0,1,0,Schematic,ideal,0.004,2019_Mar_17_1941,Face-ClassificationImage,3.0.4,60.254754934042296,
156,0,312,1,1,0,Schematic,ideal,0.004,2019_Mar_17_1941,Face-ClassificationImage,3.0.4,60.254754934042296,
156,1,313,0,1,0,Schematic,ideal,0.004,2019_Mar_17_1941,Face-ClassificationImage,3.0.4,60.254754934042296,
157,0,314,0,1,0,Schematic,ideal,0.004,2019_Mar_17_1941,Face-ClassificationImage,3.0.4,60.254754934042296,
157,1,315,1,0,0,Schematic,ideal,0.004,2019_Mar_17_1941,Face-ClassificationImage,3.0.4,60.254754934042296,
158,0,316,0,1,0,Schematic,ideal,0.004,2019_Mar_17_1941,Face-ClassificationImage,3.0.4,60.254754934042296,
158,1,317,1,0,0,Schematic,ideal,0.004,2019_Mar_17_1941,Face-ClassificationImage,3.0.4,60.254754934042296,
159,0,318,0,1,0,Schematic,ideal,0.004,2019_Mar_17_1941,Face-ClassificationImage,3.0.4,60.254754934042296,
159,1,319,1,1,0,Schematic,ideal,0.004,2019_Mar_17_1941,Face-ClassificationImage,3.0.4,60.254754934042296,
160,0,320,1,0,0,Schematic,ideal,0.004,2019_Mar_17_1941,Face-ClassificationImage,3.0.4,60.254754934042296,
160,1,321,0,1,0,Schematic,ideal,0.004,2019_Mar_17_1941,Face-ClassificationImage,3.0.4,60.254754934042296,
161,0,322,0,0,0,Schematic,ideal,0.004,2019_Mar_17_1941,Face-ClassificationImage,3.0.4,60.254754934042296,
161,1,323,1,1,0,Schematic,ideal,0.004,2019_Mar_17_1941,Face-ClassificationImage,3.0.4,60.254754934042296,
162,0,324,0,1,0,Schematic,ideal,0.004,2019_Mar_17_1941,Face-ClassificationImage,3.0.4,60.254754934042296,
162,1,325,1,1,0,Schematic,ideal,0.004,2019_Mar_17_1941,Face-ClassificationImage,3.0.4,60.254754934042296,
163,0,326,1,0,0,Schematic,ideal,0.004,2019_Mar_17_1941,Face-ClassificationImage,3.0.4,60.254754934042296,
163,1,327,0,1,0,Schematic,ideal,0.004,2019_Mar_17_1941,Face-ClassificationImage,3.0.4,60.254754934042296,
164,0,328,0,1,0,Schematic,ideal,0.004,2019_Mar_17_1941,Face-ClassificationImage,3.0.4,60.254754934042296,
164,1,329,1,1,0,Schematic,ideal,0.004,2019_Mar_17_1941,Face-ClassificationImage,3.0.4,60.254754934042296,
165,0,330,1,1,0,Schematic,ideal,0.004,2019_Mar_17_1941,Face-ClassificationImage,3.0.4,60.254754934042296,
165,1,331,0,1,0,Schematic,ideal,0.004,2019_Mar_17_1941,Face-ClassificationImage,3.0.4,60.254754934042296,
166,0,332,1,0,0,Schematic,ideal,0.004,2019_Mar_17_1941,Face-ClassificationImage,3.0.4,60.254754934042296,
166,1,333,0,0,0,Schematic,ideal,0.004,2019_Mar_17_1941,Face-ClassificationImage,3.0.4,60.254754934042296,
167,0,334,0,1,0,Schematic,ideal,0.004,2019_Mar_17_1941,Face-ClassificationImage,3.0.4,60.254754934042296,
167,1,335,1,0,0,Schematic,ideal,0.004,2019_Mar_17_1941,Face-ClassificationImage,3.0.4,60.254754934042296,
168,0,336,0,0,0,Schematic,ideal,0.004,2019_Mar_17_1941,Face-ClassificationImage,3.0.4,60.254754934042296,
168,1,337,1,1,0,Schematic,ideal,0.004,2019_Mar_17_1941,Face-ClassificationImage,3.0.4,60.254754934042296,
169,0,338,1,0,0,Schematic,ideal,0.004,2019_Mar_17_1941,Face-ClassificationImage,3.0.4,60.254754934042296,
169,1,339,0,0,0,Schematic,ideal,0.004,2019_Mar_17_1941,Face-ClassificationImage,3.0.4,60.254754934042296,
170,0,340,1,1,0,Schematic,ideal,0.004,2019_Mar_17_1941,Face-ClassificationImage,3.0.4,60.254754934042296,
170,1,341,0,0,0,Schematic,ideal,0.004,2019_Mar_17_1941,Face-ClassificationImage,3.0.4,60.254754934042296,
171,0,342,0,1,0,Schematic,ideal,0.004,2019_Mar_17_1941,Face-ClassificationImage,3.0.4,60.254754934042296,
171,1,343,1,1,0,Schematic,ideal,0.004,2019_Mar_17_1941,Face-ClassificationImage,3.0.4,60.254754934042296,
172,0,344,1,0,0,Schematic,ideal,0.004,2019_Mar_17_1941,Face-ClassificationImage,3.0.4,60.254754934042296,
172,1,345,0,1,0,Schematic,ideal,0.004,2019_Mar_17_1941,Face-ClassificationImage,3.0.4,60.254754934042296,
173,0,346,0,0,0,Schematic,ideal,0.004,2019_Mar_17_1941,Face-ClassificationImage,3.0.4,60.254754934042296,
173,1,347,1,1,0,Schematic,ideal,0.004,2019_Mar_17_1941,Face-ClassificationImage,3.0.4,60.254754934042296,
174,0,348,1,1,0,Schematic,ideal,0.004,2019_Mar_17_1941,Face-ClassificationImage,3.0.4,60.254754934042296,
174,1,349,0,1,0,Schematic,ideal,0.004,2019_Mar_17_1941,Face-ClassificationImage,3.0.4,60.254754934042296,
175,0,350,0,0,0,Schematic,ideal,0.004,2019_Mar_17_1941,Face-ClassificationImage,3.0.4,60.254754934042296,
175,1,351,1,0,0,Schematic,ideal,0.004,2019_Mar_17_1941,Face-ClassificationImage,3.0.4,60.254754934042296,
176,0,352,0,0,0,Schematic,ideal,0.004,2019_Mar_17_1941,Face-ClassificationImage,3.0.4,60.254754934042296,
176,1,353,1,0,0,Schematic,ideal,0.004,2019_Mar_17_1941,Face-ClassificationImage,3.0.4,60.254754934042296,
177,0,354,1,1,0,Schematic,ideal,0.004,2019_Mar_17_1941,Face-ClassificationImage,3.0.4,60.254754934042296,
177,1,355,0,1,0,Schematic,ideal,0.004,2019_Mar_17_1941,Face-ClassificationImage,3.0.4,60.254754934042296,
178,0,356,1,1,0,Schematic,ideal,0.004,2019_Mar_17_1941,Face-ClassificationImage,3.0.4,60.254754934042296,
178,1,357,0,1,0,Schematic,ideal,0.004,2019_Mar_17_1941,Face-ClassificationImage,3.0.4,60.254754934042296,
179,0,358,1,1,0,Schematic,ideal,0.004,2019_Mar_17_1941,Face-ClassificationImage,3.0.4,60.254754934042296,
179,1,359,0,1,0,Schematic,ideal,0.004,2019_Mar_17_1941,Face-ClassificationImage,3.0.4,60.254754934042296,
180,0,360,1,1,0,Schematic,ideal,0.004,2019_Mar_17_1941,Face-ClassificationImage,3.0.4,60.254754934042296,
180,1,361,0,1,0,Schematic,ideal,0.004,2019_Mar_17_1941,Face-ClassificationImage,3.0.4,60.254754934042296,
181,0,362,1,0,0,Schematic,ideal,0.004,2019_Mar_17_1941,Face-ClassificationImage,3.0.4,60.254754934042296,
181,1,363,0,1,0,Schematic,ideal,0.004,2019_Mar_17_1941,Face-ClassificationImage,3.0.4,60.254754934042296,
182,0,364,0,1,0,Schematic,ideal,0.004,2019_Mar_17_1941,Face-ClassificationImage,3.0.4,60.254754934042296,
182,1,365,1,1,0,Schematic,ideal,0.004,2019_Mar_17_1941,Face-ClassificationImage,3.0.4,60.254754934042296,
183,0,366,1,1,0,Schematic,ideal,0.004,2019_Mar_17_1941,Face-ClassificationImage,3.0.4,60.254754934042296,
183,1,367,0,1,0,Schematic,ideal,0.004,2019_Mar_17_1941,Face-ClassificationImage,3.0.4,60.254754934042296,
184,0,368,0,1,0,Schematic,ideal,0.004,2019_Mar_17_1941,Face-ClassificationImage,3.0.4,60.254754934042296,
184,1,369,1,1,0,Schematic,ideal,0.004,2019_Mar_17_1941,Face-ClassificationImage,3.0.4,60.254754934042296,
185,0,370,0,1,0,Schematic,ideal,0.004,2019_Mar_17_1941,Face-ClassificationImage,3.0.4,60.254754934042296,
185,1,371,1,1,0,Schematic,ideal,0.004,2019_Mar_17_1941,Face-ClassificationImage,3.0.4,60.254754934042296,
186,0,372,1,0,0,Schematic,ideal,0.004,2019_Mar_17_1941,Face-ClassificationImage,3.0.4,60.254754934042296,
186,1,373,0,1,0,Schematic,ideal,0.004,2019_Mar_17_1941,Face-ClassificationImage,3.0.4,60.254754934042296,
187,0,374,0,1,0,Schematic,ideal,0.004,2019_Mar_17_1941,Face-ClassificationImage,3.0.4,60.254754934042296,
187,1,375,1,1,0,Schematic,ideal,0.004,2019_Mar_17_1941,Face-ClassificationImage,3.0.4,60.254754934042296,
188,0,376,0,0,0,Schematic,ideal,0.004,2019_Mar_17_1941,Face-ClassificationImage,3.0.4,60.254754934042296,
188,1,377,1,1,0,Schematic,ideal,0.004,2019_Mar_17_1941,Face-ClassificationImage,3.0.4,60.254754934042296,
189,0,378,0,1,0,Schematic,ideal,0.004,2019_Mar_17_1941,Face-ClassificationImage,3.0.4,60.254754934042296,
189,1,379,1,0,0,Schematic,ideal,0.004,2019_Mar_17_1941,Face-ClassificationImage,3.0.4,60.254754934042296,
190,0,380,0,0,0,Schematic,ideal,0.004,2019_Mar_17_1941,Face-ClassificationImage,3.0.4,60.254754934042296,
190,1,381,1,1,0,Schematic,ideal,0.004,2019_Mar_17_1941,Face-ClassificationImage,3.0.4,60.254754934042296,
191,0,382,0,1,0,Schematic,ideal,0.004,2019_Mar_17_1941,Face-ClassificationImage,3.0.4,60.254754934042296,
191,1,383,1,1,0,Schematic,ideal,0.004,2019_Mar_17_1941,Face-ClassificationImage,3.0.4,60.254754934042296,
192,0,384,1,0,0,Schematic,ideal,0.004,2019_Mar_17_1941,Face-ClassificationImage,3.0.4,60.254754934042296,
192,1,385,0,1,0,Schematic,ideal,0.004,2019_Mar_17_1941,Face-ClassificationImage,3.0.4,60.254754934042296,
193,0,386,0,0,0,Schematic,ideal,0.004,2019_Mar_17_1941,Face-ClassificationImage,3.0.4,60.254754934042296,
193,1,387,1,1,0,Schematic,ideal,0.004,2019_Mar_17_1941,Face-ClassificationImage,3.0.4,60.254754934042296,
194,0,388,0,0,0,Schematic,ideal,0.004,2019_Mar_17_1941,Face-ClassificationImage,3.0.4,60.254754934042296,
194,1,389,1,1,0,Schematic,ideal,0.004,2019_Mar_17_1941,Face-ClassificationImage,3.0.4,60.254754934042296,
195,0,390,1,1,0,Schematic,ideal,0.004,2019_Mar_17_1941,Face-ClassificationImage,3.0.4,60.254754934042296,
195,1,391,0,1,0,Schematic,ideal,0.004,2019_Mar_17_1941,Face-ClassificationImage,3.0.4,60.254754934042296,
196,0,392,0,1,0,Schematic,ideal,0.004,2019_Mar_17_1941,Face-ClassificationImage,3.0.4,60.254754934042296,
196,1,393,1,1,0,Schematic,ideal,0.004,2019_Mar_17_1941,Face-ClassificationImage,3.0.4,60.254754934042296,
197,0,394,0,0,0,Schematic,ideal,0.004,2019_Mar_17_1941,Face-ClassificationImage,3.0.4,60.254754934042296,
197,1,395,1,1,0,Schematic,ideal,0.004,2019_Mar_17_1941,Face-ClassificationImage,3.0.4,60.254754934042296,
198,0,396,0,1,0,Schematic,ideal,0.004,2019_Mar_17_1941,Face-ClassificationImage,3.0.4,60.254754934042296,
198,1,397,1,1,0,Schematic,ideal,0.004,2019_Mar_17_1941,Face-ClassificationImage,3.0.4,60.254754934042296,
199,0,398,0,1,0,Schematic,ideal,0.004,2019_Mar_17_1941,Face-ClassificationImage,3.0.4,60.254754934042296,
199,1,399,1,1,0,Schematic,ideal,0.004,2019_Mar_17_1941,Face-ClassificationImage,3.0.4,60.254754934042296,
200,0,400,0,1,0,Schematic,ideal,0.004,2019_Mar_17_1941,Face-ClassificationImage,3.0.4,60.254754934042296,
200,1,401,1,1,0,Schematic,ideal,0.004,2019_Mar_17_1941,Face-ClassificationImage,3.0.4,60.254754934042296,
201,0,402,0,1,0,Schematic,ideal,0.004,2019_Mar_17_1941,Face-ClassificationImage,3.0.4,60.254754934042296,
201,1,403,1,1,0,Schematic,ideal,0.004,2019_Mar_17_1941,Face-ClassificationImage,3.0.4,60.254754934042296,
202,0,404,1,0,0,Schematic,ideal,0.004,2019_Mar_17_1941,Face-ClassificationImage,3.0.4,60.254754934042296,
202,1,405,0,1,0,Schematic,ideal,0.004,2019_Mar_17_1941,Face-ClassificationImage,3.0.4,60.254754934042296,
203,0,406,0,1,0,Schematic,ideal,0.004,2019_Mar_17_1941,Face-ClassificationImage,3.0.4,60.254754934042296,
203,1,407,1,1,0,Schematic,ideal,0.004,2019_Mar_17_1941,Face-ClassificationImage,3.0.4,60.254754934042296,
204,0,408,0,1,0,Schematic,ideal,0.004,2019_Mar_17_1941,Face-ClassificationImage,3.0.4,60.254754934042296,
204,1,409,1,0,0,Schematic,ideal,0.004,2019_Mar_17_1941,Face-ClassificationImage,3.0.4,60.254754934042296,
205,0,410,0,0,0,Schematic,ideal,0.004,2019_Mar_17_1941,Face-ClassificationImage,3.0.4,60.254754934042296,
205,1,411,1,1,0,Schematic,ideal,0.004,2019_Mar_17_1941,Face-ClassificationImage,3.0.4,60.254754934042296,
206,0,412,0,1,0,Schematic,ideal,0.004,2019_Mar_17_1941,Face-ClassificationImage,3.0.4,60.254754934042296,
206,1,413,1,1,0,Schematic,ideal,0.004,2019_Mar_17_1941,Face-ClassificationImage,3.0.4,60.254754934042296,
207,0,414,1,1,0,Schematic,ideal,0.004,2019_Mar_17_1941,Face-ClassificationImage,3.0.4,60.254754934042296,
207,1,415,0,1,0,Schematic,ideal,0.004,2019_Mar_17_1941,Face-ClassificationImage,3.0.4,60.254754934042296,
208,0,416,1,1,0,Schematic,ideal,0.004,2019_Mar_17_1941,Face-ClassificationImage,3.0.4,60.254754934042296,
208,1,417,0,1,0,Schematic,ideal,0.004,2019_Mar_17_1941,Face-ClassificationImage,3.0.4,60.254754934042296,
209,0,418,1,1,0,Schematic,ideal,0.004,2019_Mar_17_1941,Face-ClassificationImage,3.0.4,60.254754934042296,
209,1,419,0,1,0,Schematic,ideal,0.004,2019_Mar_17_1941,Face-ClassificationImage,3.0.4,60.254754934042296,
210,0,420,0,1,0,Schematic,ideal,0.004,2019_Mar_17_1941,Face-ClassificationImage,3.0.4,60.254754934042296,
210,1,421,1,1,0,Schematic,ideal,0.004,2019_Mar_17_1941,Face-ClassificationImage,3.0.4,60.254754934042296,
211,0,422,0,1,0,Schematic,ideal,0.004,2019_Mar_17_1941,Face-ClassificationImage,3.0.4,60.254754934042296,
211,1,423,1,0,0,Schematic,ideal,0.004,2019_Mar_17_1941,Face-ClassificationImage,3.0.4,60.254754934042296,
212,0,424,0,1,0,Schematic,ideal,0.004,2019_Mar_17_1941,Face-ClassificationImage,3.0.4,60.254754934042296,
212,1,425,1,1,0,Schematic,ideal,0.004,2019_Mar_17_1941,Face-ClassificationImage,3.0.4,60.254754934042296,
213,0,426,0,1,0,Schematic,ideal,0.004,2019_Mar_17_1941,Face-ClassificationImage,3.0.4,60.254754934042296,
213,1,427,1,0,0,Schematic,ideal,0.004,2019_Mar_17_1941,Face-ClassificationImage,3.0.4,60.254754934042296,
214,0,428,0,0,0,Schematic,ideal,0.004,2019_Mar_17_1941,Face-ClassificationImage,3.0.4,60.254754934042296,
214,1,429,1,0,0,Schematic,ideal,0.004,2019_Mar_17_1941,Face-ClassificationImage,3.0.4,60.254754934042296,
215,0,430,1,1,0,Schematic,ideal,0.004,2019_Mar_17_1941,Face-ClassificationImage,3.0.4,60.254754934042296,
215,1,431,0,0,0,Schematic,ideal,0.004,2019_Mar_17_1941,Face-ClassificationImage,3.0.4,60.254754934042296,
216,0,432,0,1,0,Schematic,ideal,0.004,2019_Mar_17_1941,Face-ClassificationImage,3.0.4,60.254754934042296,
216,1,433,1,0,0,Schematic,ideal,0.004,2019_Mar_17_1941,Face-ClassificationImage,3.0.4,60.254754934042296,
217,0,434,1,1,0,Schematic,ideal,0.004,2019_Mar_17_1941,Face-ClassificationImage,3.0.4,60.254754934042296,
217,1,435,0,0,0,Schematic,ideal,0.004,2019_Mar_17_1941,Face-ClassificationImage,3.0.4,60.254754934042296,
218,0,436,1,1,0,Schematic,ideal,0.004,2019_Mar_17_1941,Face-ClassificationImage,3.0.4,60.254754934042296,
218,1,437,0,0,0,Schematic,ideal,0.004,2019_Mar_17_1941,Face-ClassificationImage,3.0.4,60.254754934042296,
219,0,438,1,1,0,Schematic,ideal,0.004,2019_Mar_17_1941,Face-ClassificationImage,3.0.4,60.254754934042296,
219,1,439,0,1,0,Schematic,ideal,0.004,2019_Mar_17_1941,Face-ClassificationImage,3.0.4,60.254754934042296,
220,0,440,0,1,0,Schematic,ideal,0.004,2019_Mar_17_1941,Face-ClassificationImage,3.0.4,60.254754934042296,
220,1,441,1,0,0,Schematic,ideal,0.004,2019_Mar_17_1941,Face-ClassificationImage,3.0.4,60.254754934042296,
221,0,442,0,1,0,Schematic,ideal,0.004,2019_Mar_17_1941,Face-ClassificationImage,3.0.4,60.254754934042296,
221,1,443,1,0,0,Schematic,ideal,0.004,2019_Mar_17_1941,Face-ClassificationImage,3.0.4,60.254754934042296,
222,0,444,1,1,0,Schematic,ideal,0.004,2019_Mar_17_1941,Face-ClassificationImage,3.0.4,60.254754934042296,
222,1,445,0,1,0,Schematic,ideal,0.004,2019_Mar_17_1941,Face-ClassificationImage,3.0.4,60.254754934042296,
223,0,446,0,1,0,Schematic,ideal,0.004,2019_Mar_17_1941,Face-ClassificationImage,3.0.4,60.254754934042296,
223,1,447,1,0,0,Schematic,ideal,0.004,2019_Mar_17_1941,Face-ClassificationImage,3.0.4,60.254754934042296,
224,0,448,0,1,0,Schematic,ideal,0.004,2019_Mar_17_1941,Face-ClassificationImage,3.0.4,60.254754934042296,
224,1,449,1,1,0,Schematic,ideal,0.004,2019_Mar_17_1941,Face-ClassificationImage,3.0.4,60.254754934042296,
225,0,450,0,1,0,Schematic,ideal,0.004,2019_Mar_17_1941,Face-ClassificationImage,3.0.4,60.254754934042296,
225,1,451,1,1,0,Schematic,ideal,0.004,2019_Mar_17_1941,Face-ClassificationImage,3.0.4,60.254754934042296,
226,0,452,0,0,0,Schematic,ideal,0.004,2019_Mar_17_1941,Face-ClassificationImage,3.0.4,60.254754934042296,
226,1,453,1,0,0,Schematic,ideal,0.004,2019_Mar_17_1941,Face-ClassificationImage,3.0.4,60.254754934042296,
227,0,454,1,1,0,Schematic,ideal,0.004,2019_Mar_17_1941,Face-ClassificationImage,3.0.4,60.254754934042296,
227,1,455,0,1,0,Schematic,ideal,0.004,2019_Mar_17_1941,Face-ClassificationImage,3.0.4,60.254754934042296,
228,0,456,1,1,0,Schematic,ideal,0.004,2019_Mar_17_1941,Face-ClassificationImage,3.0.4,60.254754934042296,
228,1,457,0,1,0,Schematic,ideal,0.004,2019_Mar_17_1941,Face-ClassificationImage,3.0.4,60.254754934042296,
229,0,458,1,1,0,Schematic,ideal,0.004,2019_Mar_17_1941,Face-ClassificationImage,3.0.4,60.254754934042296,
229,1,459,0,0,0,Schematic,ideal,0.004,2019_Mar_17_1941,Face-ClassificationImage,3.0.4,60.254754934042296,
230,0,460,0,1,0,Schematic,ideal,0.004,2019_Mar_17_1941,Face-ClassificationImage,3.0.4,60.254754934042296,
230,1,461,1,0,0,Schematic,ideal,0.004,2019_Mar_17_1941,Face-ClassificationImage,3.0.4,60.254754934042296,
231,0,462,1,1,0,Schematic,ideal,0.004,2019_Mar_17_1941,Face-ClassificationImage,3.0.4,60.254754934042296,
231,1,463,0,0,0,Schematic,ideal,0.004,2019_Mar_17_1941,Face-ClassificationImage,3.0.4,60.254754934042296,
232,0,464,0,0,0,Schematic,ideal,0.004,2019_Mar_17_1941,Face-ClassificationImage,3.0.4,60.254754934042296,
232,1,465,1,1,0,Schematic,ideal,0.004,2019_Mar_17_1941,Face-ClassificationImage,3.0.4,60.254754934042296,
233,0,466,0,1,0,Schematic,ideal,0.004,2019_Mar_17_1941,Face-ClassificationImage,3.0.4,60.254754934042296,
233,1,467,1,1,0,Schematic,ideal,0.004,2019_Mar_17_1941,Face-ClassificationImage,3.0.4,60.254754934042296,
234,0,468,1,0,0,Schematic,ideal,0.004,2019_Mar_17_1941,Face-ClassificationImage,3.0.4,60.254754934042296,
234,1,469,0,0,0,Schematic,ideal,0.004,2019_Mar_17_1941,Face-ClassificationImage,3.0.4,60.254754934042296,
235,0,470,1,0,0,Schematic,ideal,0.004,2019_Mar_17_1941,Face-ClassificationImage,3.0.4,60.254754934042296,
235,1,471,0,1,0,Schematic,ideal,0.004,2019_Mar_17_1941,Face-ClassificationImage,3.0.4,60.254754934042296,
236,0,472,1,1,0,Schematic,ideal,0.004,2019_Mar_17_1941,Face-ClassificationImage,3.0.4,60.254754934042296,
236,1,473,0,1,0,Schematic,ideal,0.004,2019_Mar_17_1941,Face-ClassificationImage,3.0.4,60.254754934042296,
237,0,474,1,0,0,Schematic,ideal,0.004,2019_Mar_17_1941,Face-ClassificationImage,3.0.4,60.254754934042296,
237,1,475,0,1,0,Schematic,ideal,0.004,2019_Mar_17_1941,Face-ClassificationImage,3.0.4,60.254754934042296,
238,0,476,1,1,0,Schematic,ideal,0.004,2019_Mar_17_1941,Face-ClassificationImage,3.0.4,60.254754934042296,
238,1,477,0,0,0,Schematic,ideal,0.004,2019_Mar_17_1941,Face-ClassificationImage,3.0.4,60.254754934042296,
239,0,478,0,1,0,Schematic,ideal,0.004,2019_Mar_17_1941,Face-ClassificationImage,3.0.4,60.254754934042296,
239,1,479,1,1,0,Schematic,ideal,0.004,2019_Mar_17_1941,Face-ClassificationImage,3.0.4,60.254754934042296,
240,0,480,0,0,0,Schematic,ideal,0.004,2019_Mar_17_1941,Face-ClassificationImage,3.0.4,60.254754934042296,
240,1,481,1,0,0,Schematic,ideal,0.004,2019_Mar_17_1941,Face-ClassificationImage,3.0.4,60.254754934042296,
241,0,482,0,1,0,Schematic,ideal,0.004,2019_Mar_17_1941,Face-ClassificationImage,3.0.4,60.254754934042296,
241,1,483,1,1,0,Schematic,ideal,0.004,2019_Mar_17_1941,Face-ClassificationImage,3.0.4,60.254754934042296,
242,0,484,1,1,0,Schematic,ideal,0.004,2019_Mar_17_1941,Face-ClassificationImage,3.0.4,60.254754934042296,
242,1,485,0,0,0,Schematic,ideal,0.004,2019_Mar_17_1941,Face-ClassificationImage,3.0.4,60.254754934042296,
243,0,486,1,1,0,Schematic,ideal,0.004,2019_Mar_17_1941,Face-ClassificationImage,3.0.4,60.254754934042296,
243,1,487,0,1,0,Schematic,ideal,0.004,2019_Mar_17_1941,Face-ClassificationImage,3.0.4,60.254754934042296,
244,0,488,1,0,0,Schematic,ideal,0.004,2019_Mar_17_1941,Face-ClassificationImage,3.0.4,60.254754934042296,
244,1,489,0,1,0,Schematic,ideal,0.004,2019_Mar_17_1941,Face-ClassificationImage,3.0.4,60.254754934042296,
245,0,490,0,1,0,Schematic,ideal,0.004,2019_Mar_17_1941,Face-ClassificationImage,3.0.4,60.254754934042296,
245,1,491,1,1,0,Schematic,ideal,0.004,2019_Mar_17_1941,Face-ClassificationImage,3.0.4,60.254754934042296,
246,0,492,0,0,0,Schematic,ideal,0.004,2019_Mar_17_1941,Face-ClassificationImage,3.0.4,60.254754934042296,
246,1,493,1,1,0,Schematic,ideal,0.004,2019_Mar_17_1941,Face-ClassificationImage,3.0.4,60.254754934042296,
247,0,494,1,1,0,Schematic,ideal,0.004,2019_Mar_17_1941,Face-ClassificationImage,3.0.4,60.254754934042296,
247,1,495,0,0,0,Schematic,ideal,0.004,2019_Mar_17_1941,Face-ClassificationImage,3.0.4,60.254754934042296,
248,0,496,1,0,0,Schematic,ideal,0.004,2019_Mar_17_1941,Face-ClassificationImage,3.0.4,60.254754934042296,
248,1,497,0,0,0,Schematic,ideal,0.004,2019_Mar_17_1941,Face-ClassificationImage,3.0.4,60.254754934042296,
249,0,498,1,0,0,Schematic,ideal,0.004,2019_Mar_17_1941,Face-ClassificationImage,3.0.4,60.254754934042296,
249,1,499,0,1,0,Schematic,ideal,0.004,2019_Mar_17_1941,Face-ClassificationImage,3.0.4,60.254754934042296,
250,0,500,0,1,0,Schematic,ideal,0.004,2019_Mar_17_1941,Face-ClassificationImage,3.0.4,60.254754934042296,
250,1,501,1,0,0,Schematic,ideal,0.004,2019_Mar_17_1941,Face-ClassificationImage,3.0.4,60.254754934042296,
251,0,502,1,0,0,Schematic,ideal,0.004,2019_Mar_17_1941,Face-ClassificationImage,3.0.4,60.254754934042296,
251,1,503,0,1,0,Schematic,ideal,0.004,2019_Mar_17_1941,Face-ClassificationImage,3.0.4,60.254754934042296,
252,0,504,1,0,0,Schematic,ideal,0.004,2019_Mar_17_1941,Face-ClassificationImage,3.0.4,60.254754934042296,
252,1,505,0,1,0,Schematic,ideal,0.004,2019_Mar_17_1941,Face-ClassificationImage,3.0.4,60.254754934042296,
253,0,506,1,1,0,Schematic,ideal,0.004,2019_Mar_17_1941,Face-ClassificationImage,3.0.4,60.254754934042296,
253,1,507,0,1,0,Schematic,ideal,0.004,2019_Mar_17_1941,Face-ClassificationImage,3.0.4,60.254754934042296,
254,0,508,0,0,0,Schematic,ideal,0.004,2019_Mar_17_1941,Face-ClassificationImage,3.0.4,60.254754934042296,
254,1,509,1,1,0,Schematic,ideal,0.004,2019_Mar_17_1941,Face-ClassificationImage,3.0.4,60.254754934042296,
255,0,510,1,1,0,Schematic,ideal,0.004,2019_Mar_17_1941,Face-ClassificationImage,3.0.4,60.254754934042296,
255,1,511,0,0,0,Schematic,ideal,0.004,2019_Mar_17_1941,Face-ClassificationImage,3.0.4,60.254754934042296,
256,0,512,1,1,0,Schematic,ideal,0.004,2019_Mar_17_1941,Face-ClassificationImage,3.0.4,60.254754934042296,
256,1,513,0,1,0,Schematic,ideal,0.004,2019_Mar_17_1941,Face-ClassificationImage,3.0.4,60.254754934042296,
257,0,514,1,1,0,Schematic,ideal,0.004,2019_Mar_17_1941,Face-ClassificationImage,3.0.4,60.254754934042296,
257,1,515,0,1,0,Schematic,ideal,0.004,2019_Mar_17_1941,Face-ClassificationImage,3.0.4,60.254754934042296,
258,0,516,0,1,0,Schematic,ideal,0.004,2019_Mar_17_1941,Face-ClassificationImage,3.0.4,60.254754934042296,
258,1,517,1,1,0,Schematic,ideal,0.004,2019_Mar_17_1941,Face-ClassificationImage,3.0.4,60.254754934042296,
259,0,518,0,1,0,Schematic,ideal,0.004,2019_Mar_17_1941,Face-ClassificationImage,3.0.4,60.254754934042296,
259,1,519,1,0,0,Schematic,ideal,0.004,2019_Mar_17_1941,Face-ClassificationImage,3.0.4,60.254754934042296,
260,0,520,0,0,0,Schematic,ideal,0.004,2019_Mar_17_1941,Face-ClassificationImage,3.0.4,60.254754934042296,
260,1,521,1,1,0,Schematic,ideal,0.004,2019_Mar_17_1941,Face-ClassificationImage,3.0.4,60.254754934042296,
261,0,522,0,0,0,Schematic,ideal,0.004,2019_Mar_17_1941,Face-ClassificationImage,3.0.4,60.254754934042296,
261,1,523,1,1,0,Schematic,ideal,0.004,2019_Mar_17_1941,Face-ClassificationImage,3.0.4,60.254754934042296,
262,0,524,0,0,0,Schematic,ideal,0.004,2019_Mar_17_1941,Face-ClassificationImage,3.0.4,60.254754934042296,
262,1,525,1,1,0,Schematic,ideal,0.004,2019_Mar_17_1941,Face-ClassificationImage,3.0.4,60.254754934042296,
263,0,526,0,0,0,Schematic,ideal,0.004,2019_Mar_17_1941,Face-ClassificationImage,3.0.4,60.254754934042296,
263,1,527,1,1,0,Schematic,ideal,0.004,2019_Mar_17_1941,Face-ClassificationImage,3.0.4,60.254754934042296,
264,0,528,1,1,0,Schematic,ideal,0.004,2019_Mar_17_1941,Face-ClassificationImage,3.0.4,60.254754934042296,
264,1,529,0,1,0,Schematic,ideal,0.004,2019_Mar_17_1941,Face-ClassificationImage,3.0.4,60.254754934042296,
265,0,530,1,1,0,Schematic,ideal,0.004,2019_Mar_17_1941,Face-ClassificationImage,3.0.4,60.254754934042296,
265,1,531,0,1,0,Schematic,ideal,0.004,2019_Mar_17_1941,Face-ClassificationImage,3.0.4,60.254754934042296,
266,0,532,1,0,0,Schematic,ideal,0.004,2019_Mar_17_1941,Face-ClassificationImage,3.0.4,60.254754934042296,
266,1,533,0,1,0,Schematic,ideal,0.004,2019_Mar_17_1941,Face-ClassificationImage,3.0.4,60.254754934042296,
267,0,534,0,1,0,Schematic,ideal,0.004,2019_Mar_17_1941,Face-ClassificationImage,3.0.4,60.254754934042296,
267,1,535,1,1,0,Schematic,ideal,0.004,2019_Mar_17_1941,Face-ClassificationImage,3.0.4,60.254754934042296,
268,0,536,0,1,0,Schematic,ideal,0.004,2019_Mar_17_1941,Face-ClassificationImage,3.0.4,60.254754934042296,
268,1,537,1,1,0,Schematic,ideal,0.004,2019_Mar_17_1941,Face-ClassificationImage,3.0.4,60.254754934042296,
269,0,538,0,1,0,Schematic,ideal,0.004,2019_Mar_17_1941,Face-ClassificationImage,3.0.4,60.254754934042296,
269,1,539,1,1,0,Schematic,ideal,0.004,2019_Mar_17_1941,Face-ClassificationImage,3.0.4,60.254754934042296,
270,0,540,0,1,0,Schematic,ideal,0.004,2019_Mar_17_1941,Face-ClassificationImage,3.0.4,60.254754934042296,
270,1,541,1,1,0,Schematic,ideal,0.004,2019_Mar_17_1941,Face-ClassificationImage,3.0.4,60.254754934042296,
271,0,542,0,0,0,Schematic,ideal,0.004,2019_Mar_17_1941,Face-ClassificationImage,3.0.4,60.254754934042296,
271,1,543,1,1,0,Schematic,ideal,0.004,2019_Mar_17_1941,Face-ClassificationImage,3.0.4,60.254754934042296,
272,0,544,0,1,0,Schematic,ideal,0.004,2019_Mar_17_1941,Face-ClassificationImage,3.0.4,60.254754934042296,
272,1,545,1,1,0,Schematic,ideal,0.004,2019_Mar_17_1941,Face-ClassificationImage,3.0.4,60.254754934042296,
273,0,546,0,1,0,Schematic,ideal,0.004,2019_Mar_17_1941,Face-ClassificationImage,3.0.4,60.254754934042296,
273,1,547,1,0,0,Schematic,ideal,0.004,2019_Mar_17_1941,Face-ClassificationImage,3.0.4,60.254754934042296,
274,0,548,1,1,0,Schematic,ideal,0.004,2019_Mar_17_1941,Face-ClassificationImage,3.0.4,60.254754934042296,
274,1,549,0,1,0,Schematic,ideal,0.004,2019_Mar_17_1941,Face-ClassificationImage,3.0.4,60.254754934042296,
275,0,550,0,1,0,Schematic,ideal,0.004,2019_Mar_17_1941,Face-ClassificationImage,3.0.4,60.254754934042296,
275,1,551,1,0,0,Schematic,ideal,0.004,2019_Mar_17_1941,Face-ClassificationImage,3.0.4,60.254754934042296,
276,0,552,1,0,0,Schematic,ideal,0.004,2019_Mar_17_1941,Face-ClassificationImage,3.0.4,60.254754934042296,
276,1,553,0,1,0,Schematic,ideal,0.004,2019_Mar_17_1941,Face-ClassificationImage,3.0.4,60.254754934042296,
277,0,554,0,1,0,Schematic,ideal,0.004,2019_Mar_17_1941,Face-ClassificationImage,3.0.4,60.254754934042296,
277,1,555,1,1,0,Schematic,ideal,0.004,2019_Mar_17_1941,Face-ClassificationImage,3.0.4,60.254754934042296,
278,0,556,0,1,0,Schematic,ideal,0.004,2019_Mar_17_1941,Face-ClassificationImage,3.0.4,60.254754934042296,
278,1,557,1,1,0,Schematic,ideal,0.004,2019_Mar_17_1941,Face-ClassificationImage,3.0.4,60.254754934042296,
279,0,558,1,0,0,Schematic,ideal,0.004,2019_Mar_17_1941,Face-ClassificationImage,3.0.4,60.254754934042296,
279,1,559,0,1,0,Schematic,ideal,0.004,2019_Mar_17_1941,Face-ClassificationImage,3.0.4,60.254754934042296,
280,0,560,1,1,0,Schematic,ideal,0.004,2019_Mar_17_1941,Face-ClassificationImage,3.0.4,60.254754934042296,
280,1,561,0,1,0,Schematic,ideal,0.004,2019_Mar_17_1941,Face-ClassificationImage,3.0.4,60.254754934042296,
281,0,562,1,1,0,Schematic,ideal,0.004,2019_Mar_17_1941,Face-ClassificationImage,3.0.4,60.254754934042296,
281,1,563,0,1,0,Schematic,ideal,0.004,2019_Mar_17_1941,Face-ClassificationImage,3.0.4,60.254754934042296,
282,0,564,0,0,0,Schematic,ideal,0.004,2019_Mar_17_1941,Face-ClassificationImage,3.0.4,60.254754934042296,
282,1,565,1,1,0,Schematic,ideal,0.004,2019_Mar_17_1941,Face-ClassificationImage,3.0.4,60.254754934042296,
283,0,566,0,1,0,Schematic,ideal,0.004,2019_Mar_17_1941,Face-ClassificationImage,3.0.4,60.254754934042296,
283,1,567,1,0,0,Schematic,ideal,0.004,2019_Mar_17_1941,Face-ClassificationImage,3.0.4,60.254754934042296,
284,0,568,1,1,0,Schematic,ideal,0.004,2019_Mar_17_1941,Face-ClassificationImage,3.0.4,60.254754934042296,
284,1,569,0,0,0,Schematic,ideal,0.004,2019_Mar_17_1941,Face-ClassificationImage,3.0.4,60.254754934042296,
285,0,570,1,1,0,Schematic,ideal,0.004,2019_Mar_17_1941,Face-ClassificationImage,3.0.4,60.254754934042296,
285,1,571,0,1,0,Schematic,ideal,0.004,2019_Mar_17_1941,Face-ClassificationImage,3.0.4,60.254754934042296,
286,0,572,1,1,0,Schematic,ideal,0.004,2019_Mar_17_1941,Face-ClassificationImage,3.0.4,60.254754934042296,
286,1,573,0,1,0,Schematic,ideal,0.004,2019_Mar_17_1941,Face-ClassificationImage,3.0.4,60.254754934042296,
287,0,574,1,1,0,Schematic,ideal,0.004,2019_Mar_17_1941,Face-ClassificationImage,3.0.4,60.254754934042296,
287,1,575,0,1,0,Schematic,ideal,0.004,2019_Mar_17_1941,Face-ClassificationImage,3.0.4,60.254754934042296,
288,0,576,0,1,0,Schematic,ideal,0.004,2019_Mar_17_1941,Face-ClassificationImage,3.0.4,60.254754934042296,
288,1,577,1,0,0,Schematic,ideal,0.004,2019_Mar_17_1941,Face-ClassificationImage,3.0.4,60.254754934042296,
289,0,578,0,1,0,Schematic,ideal,0.004,2019_Mar_17_1941,Face-ClassificationImage,3.0.4,60.254754934042296,
289,1,579,1,0,0,Schematic,ideal,0.004,2019_Mar_17_1941,Face-ClassificationImage,3.0.4,60.254754934042296,
290,0,580,1,1,0,Schematic,ideal,0.004,2019_Mar_17_1941,Face-ClassificationImage,3.0.4,60.254754934042296,
290,1,581,0,1,0,Schematic,ideal,0.004,2019_Mar_17_1941,Face-ClassificationImage,3.0.4,60.254754934042296,
291,0,582,0,1,0,Schematic,ideal,0.004,2019_Mar_17_1941,Face-ClassificationImage,3.0.4,60.254754934042296,
291,1,583,1,0,0,Schematic,ideal,0.004,2019_Mar_17_1941,Face-ClassificationImage,3.0.4,60.254754934042296,
292,0,584,1,0,0,Schematic,ideal,0.004,2019_Mar_17_1941,Face-ClassificationImage,3.0.4,60.254754934042296,
292,1,585,0,1,0,Schematic,ideal,0.004,2019_Mar_17_1941,Face-ClassificationImage,3.0.4,60.254754934042296,
293,0,586,0,1,0,Schematic,ideal,0.004,2019_Mar_17_1941,Face-ClassificationImage,3.0.4,60.254754934042296,
293,1,587,1,1,0,Schematic,ideal,0.004,2019_Mar_17_1941,Face-ClassificationImage,3.0.4,60.254754934042296,
294,0,588,0,1,0,Schematic,ideal,0.004,2019_Mar_17_1941,Face-ClassificationImage,3.0.4,60.254754934042296,
294,1,589,1,1,0,Schematic,ideal,0.004,2019_Mar_17_1941,Face-ClassificationImage,3.0.4,60.254754934042296,
295,0,590,0,1,0,Schematic,ideal,0.004,2019_Mar_17_1941,Face-ClassificationImage,3.0.4,60.254754934042296,
295,1,591,1,0,0,Schematic,ideal,0.004,2019_Mar_17_1941,Face-ClassificationImage,3.0.4,60.254754934042296,
296,0,592,0,0,0,Schematic,ideal,0.004,2019_Mar_17_1941,Face-ClassificationImage,3.0.4,60.254754934042296,
296,1,593,1,1,0,Schematic,ideal,0.004,2019_Mar_17_1941,Face-ClassificationImage,3.0.4,60.254754934042296,
297,0,594,1,0,0,Schematic,ideal,0.004,2019_Mar_17_1941,Face-ClassificationImage,3.0.4,60.254754934042296,
297,1,595,0,0,0,Schematic,ideal,0.004,2019_Mar_17_1941,Face-ClassificationImage,3.0.4,60.254754934042296,
298,0,596,0,1,0,Schematic,ideal,0.004,2019_Mar_17_1941,Face-ClassificationImage,3.0.4,60.254754934042296,
298,1,597,1,1,0,Schematic,ideal,0.004,2019_Mar_17_1941,Face-ClassificationImage,3.0.4,60.254754934042296,
299,0,598,1,1,0,Schematic,ideal,0.004,2019_Mar_17_1941,Face-ClassificationImage,3.0.4,60.254754934042296,
299,1,599,0,0,0,Schematic,ideal,0.004,2019_Mar_17_1941,Face-ClassificationImage,3.0.4,60.254754934042296,
300,0,600,0,1,0,Schematic,ideal,0.004,2019_Mar_17_1941,Face-ClassificationImage,3.0.4,60.254754934042296,
300,1,601,1,1,0,Schematic,ideal,0.004,2019_Mar_17_1941,Face-ClassificationImage,3.0.4,60.254754934042296,
301,0,602,1,1,0,Schematic,ideal,0.004,2019_Mar_17_1941,Face-ClassificationImage,3.0.4,60.254754934042296,
301,1,603,0,0,0,Schematic,ideal,0.004,2019_Mar_17_1941,Face-ClassificationImage,3.0.4,60.254754934042296,
302,0,604,1,1,0,Schematic,ideal,0.004,2019_Mar_17_1941,Face-ClassificationImage,3.0.4,60.254754934042296,
302,1,605,0,1,0,Schematic,ideal,0.004,2019_Mar_17_1941,Face-ClassificationImage,3.0.4,60.254754934042296,
303,0,606,0,0,0,Schematic,ideal,0.004,2019_Mar_17_1941,Face-ClassificationImage,3.0.4,60.254754934042296,
303,1,607,1,1,0,Schematic,ideal,0.004,2019_Mar_17_1941,Face-ClassificationImage,3.0.4,60.254754934042296,
304,0,608,1,1,0,Schematic,ideal,0.004,2019_Mar_17_1941,Face-ClassificationImage,3.0.4,60.254754934042296,
304,1,609,0,1,0,Schematic,ideal,0.004,2019_Mar_17_1941,Face-ClassificationImage,3.0.4,60.254754934042296,
305,0,610,1,0,0,Schematic,ideal,0.004,2019_Mar_17_1941,Face-ClassificationImage,3.0.4,60.254754934042296,
305,1,611,0,0,0,Schematic,ideal,0.004,2019_Mar_17_1941,Face-ClassificationImage,3.0.4,60.254754934042296,
306,0,612,0,1,0,Schematic,ideal,0.004,2019_Mar_17_1941,Face-ClassificationImage,3.0.4,60.254754934042296,
306,1,613,1,0,0,Schematic,ideal,0.004,2019_Mar_17_1941,Face-ClassificationImage,3.0.4,60.254754934042296,
307,0,614,1,0,0,Schematic,ideal,0.004,2019_Mar_17_1941,Face-ClassificationImage,3.0.4,60.254754934042296,
307,1,615,0,0,0,Schematic,ideal,0.004,2019_Mar_17_1941,Face-ClassificationImage,3.0.4,60.254754934042296,
308,0,616,1,1,0,Schematic,ideal,0.004,2019_Mar_17_1941,Face-ClassificationImage,3.0.4,60.254754934042296,
308,1,617,0,1,0,Schematic,ideal,0.004,2019_Mar_17_1941,Face-ClassificationImage,3.0.4,60.254754934042296,
309,0,618,0,1,0,Schematic,ideal,0.004,2019_Mar_17_1941,Face-ClassificationImage,3.0.4,60.254754934042296,
309,1,619,1,1,0,Schematic,ideal,0.004,2019_Mar_17_1941,Face-ClassificationImage,3.0.4,60.254754934042296,
310,0,620,0,1,0,Schematic,ideal,0.004,2019_Mar_17_1941,Face-ClassificationImage,3.0.4,60.254754934042296,
310,1,621,1,1,0,Schematic,ideal,0.004,2019_Mar_17_1941,Face-ClassificationImage,3.0.4,60.254754934042296,
311,0,622,1,1,0,Schematic,ideal,0.004,2019_Mar_17_1941,Face-ClassificationImage,3.0.4,60.254754934042296,
311,1,623,0,0,0,Schematic,ideal,0.004,2019_Mar_17_1941,Face-ClassificationImage,3.0.4,60.254754934042296,
312,0,624,0,1,0,Schematic,ideal,0.004,2019_Mar_17_1941,Face-ClassificationImage,3.0.4,60.254754934042296,
312,1,625,1,0,0,Schematic,ideal,0.004,2019_Mar_17_1941,Face-ClassificationImage,3.0.4,60.254754934042296,
313,0,626,0,0,0,Schematic,ideal,0.004,2019_Mar_17_1941,Face-ClassificationImage,3.0.4,60.254754934042296,
313,1,627,1,0,0,Schematic,ideal,0.004,2019_Mar_17_1941,Face-ClassificationImage,3.0.4,60.254754934042296,
314,0,628,1,0,0,Schematic,ideal,0.004,2019_Mar_17_1941,Face-ClassificationImage,3.0.4,60.254754934042296,
314,1,629,0,0,0,Schematic,ideal,0.004,2019_Mar_17_1941,Face-ClassificationImage,3.0.4,60.254754934042296,
315,0,630,0,1,0,Schematic,ideal,0.004,2019_Mar_17_1941,Face-ClassificationImage,3.0.4,60.254754934042296,
315,1,631,1,1,0,Schematic,ideal,0.004,2019_Mar_17_1941,Face-ClassificationImage,3.0.4,60.254754934042296,
316,0,632,0,1,0,Schematic,ideal,0.004,2019_Mar_17_1941,Face-ClassificationImage,3.0.4,60.254754934042296,
316,1,633,1,0,0,Schematic,ideal,0.004,2019_Mar_17_1941,Face-ClassificationImage,3.0.4,60.254754934042296,
317,0,634,0,0,0,Schematic,ideal,0.004,2019_Mar_17_1941,Face-ClassificationImage,3.0.4,60.254754934042296,
317,1,635,1,1,0,Schematic,ideal,0.004,2019_Mar_17_1941,Face-ClassificationImage,3.0.4,60.254754934042296,
318,0,636,1,1,0,Schematic,ideal,0.004,2019_Mar_17_1941,Face-ClassificationImage,3.0.4,60.254754934042296,
318,1,637,0,1,0,Schematic,ideal,0.004,2019_Mar_17_1941,Face-ClassificationImage,3.0.4,60.254754934042296,
319,0,638,0,0,0,Schematic,ideal,0.004,2019_Mar_17_1941,Face-ClassificationImage,3.0.4,60.254754934042296,
319,1,639,1,1,0,Schematic,ideal,0.004,2019_Mar_17_1941,Face-ClassificationImage,3.0.4,60.254754934042296,
320,0,640,0,1,0,Schematic,ideal,0.004,2019_Mar_17_1941,Face-ClassificationImage,3.0.4,60.254754934042296,
320,1,641,1,1,0,Schematic,ideal,0.004,2019_Mar_17_1941,Face-ClassificationImage,3.0.4,60.254754934042296,
321,0,642,0,1,0,Schematic,ideal,0.004,2019_Mar_17_1941,Face-ClassificationImage,3.0.4,60.254754934042296,
321,1,643,1,1,0,Schematic,ideal,0.004,2019_Mar_17_1941,Face-ClassificationImage,3.0.4,60.254754934042296,
322,0,644,0,1,0,Schematic,ideal,0.004,2019_Mar_17_1941,Face-ClassificationImage,3.0.4,60.254754934042296,
322,1,645,1,1,0,Schematic,ideal,0.004,2019_Mar_17_1941,Face-ClassificationImage,3.0.4,60.254754934042296,
323,0,646,1,1,0,Schematic,ideal,0.004,2019_Mar_17_1941,Face-ClassificationImage,3.0.4,60.254754934042296,
323,1,647,0,1,0,Schematic,ideal,0.004,2019_Mar_17_1941,Face-ClassificationImage,3.0.4,60.254754934042296,
324,0,648,1,1,0,Schematic,ideal,0.004,2019_Mar_17_1941,Face-ClassificationImage,3.0.4,60.254754934042296,
324,1,649,0,1,0,Schematic,ideal,0.004,2019_Mar_17_1941,Face-ClassificationImage,3.0.4,60.254754934042296,
325,0,650,0,0,0,Schematic,ideal,0.004,2019_Mar_17_1941,Face-ClassificationImage,3.0.4,60.254754934042296,
325,1,651,1,1,0,Schematic,ideal,0.004,2019_Mar_17_1941,Face-ClassificationImage,3.0.4,60.254754934042296,
326,0,652,0,0,0,Schematic,ideal,0.004,2019_Mar_17_1941,Face-ClassificationImage,3.0.4,60.254754934042296,
326,1,653,1,1,0,Schematic,ideal,0.004,2019_Mar_17_1941,Face-ClassificationImage,3.0.4,60.254754934042296,
327,0,654,1,1,0,Schematic,ideal,0.004,2019_Mar_17_1941,Face-ClassificationImage,3.0.4,60.254754934042296,
327,1,655,0,0,0,Schematic,ideal,0.004,2019_Mar_17_1941,Face-ClassificationImage,3.0.4,60.254754934042296,
328,0,656,0,0,0,Schematic,ideal,0.004,2019_Mar_17_1941,Face-ClassificationImage,3.0.4,60.254754934042296,
328,1,657,1,1,0,Schematic,ideal,0.004,2019_Mar_17_1941,Face-ClassificationImage,3.0.4,60.254754934042296,
329,0,658,1,1,0,Schematic,ideal,0.004,2019_Mar_17_1941,Face-ClassificationImage,3.0.4,60.254754934042296,
329,1,659,0,1,0,Schematic,ideal,0.004,2019_Mar_17_1941,Face-ClassificationImage,3.0.4,60.254754934042296,
330,0,660,1,1,0,Schematic,ideal,0.004,2019_Mar_17_1941,Face-ClassificationImage,3.0.4,60.254754934042296,
330,1,661,0,1,0,Schematic,ideal,0.004,2019_Mar_17_1941,Face-ClassificationImage,3.0.4,60.254754934042296,
331,0,662,1,1,0,Schematic,ideal,0.004,2019_Mar_17_1941,Face-ClassificationImage,3.0.4,60.254754934042296,
331,1,663,0,0,0,Schematic,ideal,0.004,2019_Mar_17_1941,Face-ClassificationImage,3.0.4,60.254754934042296,
332,0,664,1,0,0,Schematic,ideal,0.004,2019_Mar_17_1941,Face-ClassificationImage,3.0.4,60.254754934042296,
332,1,665,0,0,0,Schematic,ideal,0.004,2019_Mar_17_1941,Face-ClassificationImage,3.0.4,60.254754934042296,
333,0,666,1,1,0,Schematic,ideal,0.004,2019_Mar_17_1941,Face-ClassificationImage,3.0.4,60.254754934042296,
333,1,667,0,1,0,Schematic,ideal,0.004,2019_Mar_17_1941,Face-ClassificationImage,3.0.4,60.254754934042296,
334,0,668,0,1,0,Schematic,ideal,0.004,2019_Mar_17_1941,Face-ClassificationImage,3.0.4,60.254754934042296,
334,1,669,1,1,0,Schematic,ideal,0.004,2019_Mar_17_1941,Face-ClassificationImage,3.0.4,60.254754934042296,
335,0,670,1,1,0,Schematic,ideal,0.004,2019_Mar_17_1941,Face-ClassificationImage,3.0.4,60.254754934042296,
335,1,671,0,1,0,Schematic,ideal,0.004,2019_Mar_17_1941,Face-ClassificationImage,3.0.4,60.254754934042296,
336,0,672,1,1,0,Schematic,ideal,0.004,2019_Mar_17_1941,Face-ClassificationImage,3.0.4,60.254754934042296,
336,1,673,0,1,0,Schematic,ideal,0.004,2019_Mar_17_1941,Face-ClassificationImage,3.0.4,60.254754934042296,
337,0,674,1,1,0,Schematic,ideal,0.004,2019_Mar_17_1941,Face-ClassificationImage,3.0.4,60.254754934042296,
337,1,675,0,0,0,Schematic,ideal,0.004,2019_Mar_17_1941,Face-ClassificationImage,3.0.4,60.254754934042296,
338,0,676,0,1,0,Schematic,ideal,0.004,2019_Mar_17_1941,Face-ClassificationImage,3.0.4,60.254754934042296,
338,1,677,1,1,0,Schematic,ideal,0.004,2019_Mar_17_1941,Face-ClassificationImage,3.0.4,60.254754934042296,
339,0,678,0,1,0,Schematic,ideal,0.004,2019_Mar_17_1941,Face-ClassificationImage,3.0.4,60.254754934042296,
339,1,679,1,1,0,Schematic,ideal,0.004,2019_Mar_17_1941,Face-ClassificationImage,3.0.4,60.254754934042296,
340,0,680,1,1,0,Schematic,ideal,0.004,2019_Mar_17_1941,Face-ClassificationImage,3.0.4,60.254754934042296,
340,1,681,0,1,0,Schematic,ideal,0.004,2019_Mar_17_1941,Face-ClassificationImage,3.0.4,60.254754934042296,
341,0,682,0,1,0,Schematic,ideal,0.004,2019_Mar_17_1941,Face-ClassificationImage,3.0.4,60.254754934042296,
341,1,683,1,1,0,Schematic,ideal,0.004,2019_Mar_17_1941,Face-ClassificationImage,3.0.4,60.254754934042296,
342,0,684,1,1,0,Schematic,ideal,0.004,2019_Mar_17_1941,Face-ClassificationImage,3.0.4,60.254754934042296,
342,1,685,0,1,0,Schematic,ideal,0.004,2019_Mar_17_1941,Face-ClassificationImage,3.0.4,60.254754934042296,
343,0,686,0,1,0,Schematic,ideal,0.004,2019_Mar_17_1941,Face-ClassificationImage,3.0.4,60.254754934042296,
343,1,687,1,1,0,Schematic,ideal,0.004,2019_Mar_17_1941,Face-ClassificationImage,3.0.4,60.254754934042296,
344,0,688,1,1,0,Schematic,ideal,0.004,2019_Mar_17_1941,Face-ClassificationImage,3.0.4,60.254754934042296,
344,1,689,0,0,0,Schematic,ideal,0.004,2019_Mar_17_1941,Face-ClassificationImage,3.0.4,60.254754934042296,
345,0,690,0,1,0,Schematic,ideal,0.004,2019_Mar_17_1941,Face-ClassificationImage,3.0.4,60.254754934042296,
345,1,691,1,1,0,Schematic,ideal,0.004,2019_Mar_17_1941,Face-ClassificationImage,3.0.4,60.254754934042296,
346,0,692,0,1,0,Schematic,ideal,0.004,2019_Mar_17_1941,Face-ClassificationImage,3.0.4,60.254754934042296,
346,1,693,1,1,0,Schematic,ideal,0.004,2019_Mar_17_1941,Face-ClassificationImage,3.0.4,60.254754934042296,
347,0,694,0,0,0,Schematic,ideal,0.004,2019_Mar_17_1941,Face-ClassificationImage,3.0.4,60.254754934042296,
347,1,695,1,1,0,Schematic,ideal,0.004,2019_Mar_17_1941,Face-ClassificationImage,3.0.4,60.254754934042296,
348,0,696,0,1,0,Schematic,ideal,0.004,2019_Mar_17_1941,Face-ClassificationImage,3.0.4,60.254754934042296,
348,1,697,1,1,0,Schematic,ideal,0.004,2019_Mar_17_1941,Face-ClassificationImage,3.0.4,60.254754934042296,
349,0,698,1,0,0,Schematic,ideal,0.004,2019_Mar_17_1941,Face-ClassificationImage,3.0.4,60.254754934042296,
349,1,699,0,0,0,Schematic,ideal,0.004,2019_Mar_17_1941,Face-ClassificationImage,3.0.4,60.254754934042296,
350,0,700,1,1,0,Schematic,ideal,0.004,2019_Mar_17_1941,Face-ClassificationImage,3.0.4,60.254754934042296,
350,1,701,0,1,0,Schematic,ideal,0.004,2019_Mar_17_1941,Face-ClassificationImage,3.0.4,60.254754934042296,
351,0,702,0,0,0,Schematic,ideal,0.004,2019_Mar_17_1941,Face-ClassificationImage,3.0.4,60.254754934042296,
351,1,703,1,1,0,Schematic,ideal,0.004,2019_Mar_17_1941,Face-ClassificationImage,3.0.4,60.254754934042296,
352,0,704,0,1,0,Schematic,ideal,0.004,2019_Mar_17_1941,Face-ClassificationImage,3.0.4,60.254754934042296,
352,1,705,1,1,0,Schematic,ideal,0.004,2019_Mar_17_1941,Face-ClassificationImage,3.0.4,60.254754934042296,
353,0,706,1,1,0,Schematic,ideal,0.004,2019_Mar_17_1941,Face-ClassificationImage,3.0.4,60.254754934042296,
353,1,707,0,1,0,Schematic,ideal,0.004,2019_Mar_17_1941,Face-ClassificationImage,3.0.4,60.254754934042296,
354,0,708,1,1,0,Schematic,ideal,0.004,2019_Mar_17_1941,Face-ClassificationImage,3.0.4,60.254754934042296,
354,1,709,0,1,0,Schematic,ideal,0.004,2019_Mar_17_1941,Face-ClassificationImage,3.0.4,60.254754934042296,
355,0,710,0,1,0,Schematic,ideal,0.004,2019_Mar_17_1941,Face-ClassificationImage,3.0.4,60.254754934042296,
355,1,711,1,1,0,Schematic,ideal,0.004,2019_Mar_17_1941,Face-ClassificationImage,3.0.4,60.254754934042296,
356,0,712,1,0,0,Schematic,ideal,0.004,2019_Mar_17_1941,Face-ClassificationImage,3.0.4,60.254754934042296,
356,1,713,0,0,0,Schematic,ideal,0.004,2019_Mar_17_1941,Face-ClassificationImage,3.0.4,60.254754934042296,
357,0,714,1,1,0,Schematic,ideal,0.004,2019_Mar_17_1941,Face-ClassificationImage,3.0.4,60.254754934042296,
357,1,715,0,1,0,Schematic,ideal,0.004,2019_Mar_17_1941,Face-ClassificationImage,3.0.4,60.254754934042296,
358,0,716,1,1,0,Schematic,ideal,0.004,2019_Mar_17_1941,Face-ClassificationImage,3.0.4,60.254754934042296,
358,1,717,0,1,0,Schematic,ideal,0.004,2019_Mar_17_1941,Face-ClassificationImage,3.0.4,60.254754934042296,
359,0,718,0,0,0,Schematic,ideal,0.004,2019_Mar_17_1941,Face-ClassificationImage,3.0.4,60.254754934042296,
359,1,719,1,0,0,Schematic,ideal,0.004,2019_Mar_17_1941,Face-ClassificationImage,3.0.4,60.254754934042296,
360,0,720,1,1,0,Schematic,ideal,0.004,2019_Mar_17_1941,Face-ClassificationImage,3.0.4,60.254754934042296,
360,1,721,0,1,0,Schematic,ideal,0.004,2019_Mar_17_1941,Face-ClassificationImage,3.0.4,60.254754934042296,
361,0,722,0,1,0,Schematic,ideal,0.004,2019_Mar_17_1941,Face-ClassificationImage,3.0.4,60.254754934042296,
361,1,723,1,1,0,Schematic,ideal,0.004,2019_Mar_17_1941,Face-ClassificationImage,3.0.4,60.254754934042296,
362,0,724,1,1,0,Schematic,ideal,0.004,2019_Mar_17_1941,Face-ClassificationImage,3.0.4,60.254754934042296,
362,1,725,0,1,0,Schematic,ideal,0.004,2019_Mar_17_1941,Face-ClassificationImage,3.0.4,60.254754934042296,
363,0,726,0,0,0,Schematic,ideal,0.004,2019_Mar_17_1941,Face-ClassificationImage,3.0.4,60.254754934042296,
363,1,727,1,0,0,Schematic,ideal,0.004,2019_Mar_17_1941,Face-ClassificationImage,3.0.4,60.254754934042296,
364,0,728,1,1,0,Schematic,ideal,0.004,2019_Mar_17_1941,Face-ClassificationImage,3.0.4,60.254754934042296,
364,1,729,0,1,0,Schematic,ideal,0.004,2019_Mar_17_1941,Face-ClassificationImage,3.0.4,60.254754934042296,
365,0,730,0,1,0,Schematic,ideal,0.004,2019_Mar_17_1941,Face-ClassificationImage,3.0.4,60.254754934042296,
365,1,731,1,1,0,Schematic,ideal,0.004,2019_Mar_17_1941,Face-ClassificationImage,3.0.4,60.254754934042296,
366,0,732,0,1,0,Schematic,ideal,0.004,2019_Mar_17_1941,Face-ClassificationImage,3.0.4,60.254754934042296,
366,1,733,1,0,0,Schematic,ideal,0.004,2019_Mar_17_1941,Face-ClassificationImage,3.0.4,60.254754934042296,
367,0,734,1,1,0,Schematic,ideal,0.004,2019_Mar_17_1941,Face-ClassificationImage,3.0.4,60.254754934042296,
367,1,735,0,1,0,Schematic,ideal,0.004,2019_Mar_17_1941,Face-ClassificationImage,3.0.4,60.254754934042296,
368,0,736,0,1,0,Schematic,ideal,0.004,2019_Mar_17_1941,Face-ClassificationImage,3.0.4,60.254754934042296,
368,1,737,1,1,0,Schematic,ideal,0.004,2019_Mar_17_1941,Face-ClassificationImage,3.0.4,60.254754934042296,
369,0,738,0,1,0,Schematic,ideal,0.004,2019_Mar_17_1941,Face-ClassificationImage,3.0.4,60.254754934042296,
369,1,739,1,1,0,Schematic,ideal,0.004,2019_Mar_17_1941,Face-ClassificationImage,3.0.4,60.254754934042296,
370,0,740,1,0,0,Schematic,ideal,0.004,2019_Mar_17_1941,Face-ClassificationImage,3.0.4,60.254754934042296,
370,1,741,0,0,0,Schematic,ideal,0.004,2019_Mar_17_1941,Face-ClassificationImage,3.0.4,60.254754934042296,
371,0,742,0,0,0,Schematic,ideal,0.004,2019_Mar_17_1941,Face-ClassificationImage,3.0.4,60.254754934042296,
371,1,743,1,1,0,Schematic,ideal,0.004,2019_Mar_17_1941,Face-ClassificationImage,3.0.4,60.254754934042296,
372,0,744,0,0,0,Schematic,ideal,0.004,2019_Mar_17_1941,Face-ClassificationImage,3.0.4,60.254754934042296,
372,1,745,1,1,0,Schematic,ideal,0.004,2019_Mar_17_1941,Face-ClassificationImage,3.0.4,60.254754934042296,
373,0,746,0,1,0,Schematic,ideal,0.004,2019_Mar_17_1941,Face-ClassificationImage,3.0.4,60.254754934042296,
373,1,747,1,1,0,Schematic,ideal,0.004,2019_Mar_17_1941,Face-ClassificationImage,3.0.4,60.254754934042296,
374,0,748,0,1,0,Schematic,ideal,0.004,2019_Mar_17_1941,Face-ClassificationImage,3.0.4,60.254754934042296,
374,1,749,1,1,0,Schematic,ideal,0.004,2019_Mar_17_1941,Face-ClassificationImage,3.0.4,60.254754934042296,
375,0,750,0,0,0,Schematic,ideal,0.004,2019_Mar_17_1941,Face-ClassificationImage,3.0.4,60.254754934042296,
375,1,751,1,1,0,Schematic,ideal,0.004,2019_Mar_17_1941,Face-ClassificationImage,3.0.4,60.254754934042296,
376,0,752,1,1,0,Schematic,ideal,0.004,2019_Mar_17_1941,Face-ClassificationImage,3.0.4,60.254754934042296,
376,1,753,0,1,0,Schematic,ideal,0.004,2019_Mar_17_1941,Face-ClassificationImage,3.0.4,60.254754934042296,
377,0,754,1,1,0,Schematic,ideal,0.004,2019_Mar_17_1941,Face-ClassificationImage,3.0.4,60.254754934042296,
377,1,755,0,1,0,Schematic,ideal,0.004,2019_Mar_17_1941,Face-ClassificationImage,3.0.4,60.254754934042296,
378,0,756,1,0,0,Schematic,ideal,0.004,2019_Mar_17_1941,Face-ClassificationImage,3.0.4,60.254754934042296,
378,1,757,0,1,0,Schematic,ideal,0.004,2019_Mar_17_1941,Face-ClassificationImage,3.0.4,60.254754934042296,
379,0,758,1,1,0,Schematic,ideal,0.004,2019_Mar_17_1941,Face-ClassificationImage,3.0.4,60.254754934042296,
379,1,759,0,1,0,Schematic,ideal,0.004,2019_Mar_17_1941,Face-ClassificationImage,3.0.4,60.254754934042296,
380,0,760,0,0,0,Schematic,ideal,0.004,2019_Mar_17_1941,Face-ClassificationImage,3.0.4,60.254754934042296,
380,1,761,1,0,0,Schematic,ideal,0.004,2019_Mar_17_1941,Face-ClassificationImage,3.0.4,60.254754934042296,
381,0,762,0,1,0,Schematic,ideal,0.004,2019_Mar_17_1941,Face-ClassificationImage,3.0.4,60.254754934042296,
381,1,763,1,0,0,Schematic,ideal,0.004,2019_Mar_17_1941,Face-ClassificationImage,3.0.4,60.254754934042296,
382,0,764,1,1,0,Schematic,ideal,0.004,2019_Mar_17_1941,Face-ClassificationImage,3.0.4,60.254754934042296,
382,1,765,0,1,0,Schematic,ideal,0.004,2019_Mar_17_1941,Face-ClassificationImage,3.0.4,60.254754934042296,
383,0,766,1,0,0,Schematic,ideal,0.004,2019_Mar_17_1941,Face-ClassificationImage,3.0.4,60.254754934042296,
383,1,767,0,1,0,Schematic,ideal,0.004,2019_Mar_17_1941,Face-ClassificationImage,3.0.4,60.254754934042296,
384,0,768,0,1,0,Schematic,ideal,0.004,2019_Mar_17_1941,Face-ClassificationImage,3.0.4,60.254754934042296,
384,1,769,1,1,0,Schematic,ideal,0.004,2019_Mar_17_1941,Face-ClassificationImage,3.0.4,60.254754934042296,
385,0,770,1,1,0,Schematic,ideal,0.004,2019_Mar_17_1941,Face-ClassificationImage,3.0.4,60.254754934042296,
385,1,771,0,1,0,Schematic,ideal,0.004,2019_Mar_17_1941,Face-ClassificationImage,3.0.4,60.254754934042296,
386,0,772,1,1,0,Schematic,ideal,0.004,2019_Mar_17_1941,Face-ClassificationImage,3.0.4,60.254754934042296,
386,1,773,0,1,0,Schematic,ideal,0.004,2019_Mar_17_1941,Face-ClassificationImage,3.0.4,60.254754934042296,
387,0,774,1,1,0,Schematic,ideal,0.004,2019_Mar_17_1941,Face-ClassificationImage,3.0.4,60.254754934042296,
387,1,775,0,1,0,Schematic,ideal,0.004,2019_Mar_17_1941,Face-ClassificationImage,3.0.4,60.254754934042296,
388,0,776,0,0,0,Schematic,ideal,0.004,2019_Mar_17_1941,Face-ClassificationImage,3.0.4,60.254754934042296,
388,1,777,1,0,0,Schematic,ideal,0.004,2019_Mar_17_1941,Face-ClassificationImage,3.0.4,60.254754934042296,
389,0,778,0,1,0,Schematic,ideal,0.004,2019_Mar_17_1941,Face-ClassificationImage,3.0.4,60.254754934042296,
389,1,779,1,1,0,Schematic,ideal,0.004,2019_Mar_17_1941,Face-ClassificationImage,3.0.4,60.254754934042296,
390,0,780,0,1,0,Schematic,ideal,0.004,2019_Mar_17_1941,Face-ClassificationImage,3.0.4,60.254754934042296,
390,1,781,1,1,0,Schematic,ideal,0.004,2019_Mar_17_1941,Face-ClassificationImage,3.0.4,60.254754934042296,
391,0,782,1,1,0,Schematic,ideal,0.004,2019_Mar_17_1941,Face-ClassificationImage,3.0.4,60.254754934042296,
391,1,783,0,1,0,Schematic,ideal,0.004,2019_Mar_17_1941,Face-ClassificationImage,3.0.4,60.254754934042296,
392,0,784,0,1,0,Schematic,ideal,0.004,2019_Mar_17_1941,Face-ClassificationImage,3.0.4,60.254754934042296,
392,1,785,1,1,0,Schematic,ideal,0.004,2019_Mar_17_1941,Face-ClassificationImage,3.0.4,60.254754934042296,
393,0,786,1,1,0,Schematic,ideal,0.004,2019_Mar_17_1941,Face-ClassificationImage,3.0.4,60.254754934042296,
393,1,787,0,1,0,Schematic,ideal,0.004,2019_Mar_17_1941,Face-ClassificationImage,3.0.4,60.254754934042296,
394,0,788,0,1,0,Schematic,ideal,0.004,2019_Mar_17_1941,Face-ClassificationImage,3.0.4,60.254754934042296,
394,1,789,1,0,0,Schematic,ideal,0.004,2019_Mar_17_1941,Face-ClassificationImage,3.0.4,60.254754934042296,
395,0,790,0,1,0,Schematic,ideal,0.004,2019_Mar_17_1941,Face-ClassificationImage,3.0.4,60.254754934042296,
395,1,791,1,0,0,Schematic,ideal,0.004,2019_Mar_17_1941,Face-ClassificationImage,3.0.4,60.254754934042296,
396,0,792,1,1,0,Schematic,ideal,0.004,2019_Mar_17_1941,Face-ClassificationImage,3.0.4,60.254754934042296,
396,1,793,0,0,0,Schematic,ideal,0.004,2019_Mar_17_1941,Face-ClassificationImage,3.0.4,60.254754934042296,
397,0,794,1,1,0,Schematic,ideal,0.004,2019_Mar_17_1941,Face-ClassificationImage,3.0.4,60.254754934042296,
397,1,795,0,1,0,Schematic,ideal,0.004,2019_Mar_17_1941,Face-ClassificationImage,3.0.4,60.254754934042296,
398,0,796,1,1,0,Schematic,ideal,0.004,2019_Mar_17_1941,Face-ClassificationImage,3.0.4,60.254754934042296,
398,1,797,0,0,0,Schematic,ideal,0.004,2019_Mar_17_1941,Face-ClassificationImage,3.0.4,60.254754934042296,
399,0,798,0,0,0,Schematic,ideal,0.004,2019_Mar_17_1941,Face-ClassificationImage,3.0.4,60.254754934042296,
399,1,799,1,1,0,Schematic,ideal,0.004,2019_Mar_17_1941,Face-ClassificationImage,3.0.4,60.254754934042296,
400,0,800,1,0,0,Schematic,ideal,0.004,2019_Mar_17_1941,Face-ClassificationImage,3.0.4,60.254754934042296,
400,1,801,0,1,0,Schematic,ideal,0.004,2019_Mar_17_1941,Face-ClassificationImage,3.0.4,60.254754934042296,
401,0,802,0,1,0,Schematic,ideal,0.004,2019_Mar_17_1941,Face-ClassificationImage,3.0.4,60.254754934042296,
401,1,803,1,1,0,Schematic,ideal,0.004,2019_Mar_17_1941,Face-ClassificationImage,3.0.4,60.254754934042296,
402,0,804,0,1,0,Schematic,ideal,0.004,2019_Mar_17_1941,Face-ClassificationImage,3.0.4,60.254754934042296,
402,1,805,1,1,0,Schematic,ideal,0.004,2019_Mar_17_1941,Face-ClassificationImage,3.0.4,60.254754934042296,
403,0,806,1,1,0,Schematic,ideal,0.004,2019_Mar_17_1941,Face-ClassificationImage,3.0.4,60.254754934042296,
403,1,807,0,1,0,Schematic,ideal,0.004,2019_Mar_17_1941,Face-ClassificationImage,3.0.4,60.254754934042296,
404,0,808,1,1,0,Schematic,ideal,0.004,2019_Mar_17_1941,Face-ClassificationImage,3.0.4,60.254754934042296,
404,1,809,0,1,0,Schematic,ideal,0.004,2019_Mar_17_1941,Face-ClassificationImage,3.0.4,60.254754934042296,
405,0,810,0,1,0,Schematic,ideal,0.004,2019_Mar_17_1941,Face-ClassificationImage,3.0.4,60.254754934042296,
405,1,811,1,1,0,Schematic,ideal,0.004,2019_Mar_17_1941,Face-ClassificationImage,3.0.4,60.254754934042296,
406,0,812,0,0,0,Schematic,ideal,0.004,2019_Mar_17_1941,Face-ClassificationImage,3.0.4,60.254754934042296,
406,1,813,1,1,0,Schematic,ideal,0.004,2019_Mar_17_1941,Face-ClassificationImage,3.0.4,60.254754934042296,
407,0,814,1,0,0,Schematic,ideal,0.004,2019_Mar_17_1941,Face-ClassificationImage,3.0.4,60.254754934042296,
407,1,815,0,1,0,Schematic,ideal,0.004,2019_Mar_17_1941,Face-ClassificationImage,3.0.4,60.254754934042296,
408,0,816,0,0,0,Schematic,ideal,0.004,2019_Mar_17_1941,Face-ClassificationImage,3.0.4,60.254754934042296,
408,1,817,1,1,0,Schematic,ideal,0.004,2019_Mar_17_1941,Face-ClassificationImage,3.0.4,60.254754934042296,
409,0,818,1,1,0,Schematic,ideal,0.004,2019_Mar_17_1941,Face-ClassificationImage,3.0.4,60.254754934042296,
409,1,819,0,1,0,Schematic,ideal,0.004,2019_Mar_17_1941,Face-ClassificationImage,3.0.4,60.254754934042296,
410,0,820,0,0,0,Schematic,ideal,0.004,2019_Mar_17_1941,Face-ClassificationImage,3.0.4,60.254754934042296,
410,1,821,1,1,0,Schematic,ideal,0.004,2019_Mar_17_1941,Face-ClassificationImage,3.0.4,60.254754934042296,
411,0,822,1,0,0,Schematic,ideal,0.004,2019_Mar_17_1941,Face-ClassificationImage,3.0.4,60.254754934042296,
411,1,823,0,1,0,Schematic,ideal,0.004,2019_Mar_17_1941,Face-ClassificationImage,3.0.4,60.254754934042296,
412,0,824,0,1,0,Schematic,ideal,0.004,2019_Mar_17_1941,Face-ClassificationImage,3.0.4,60.254754934042296,
412,1,825,1,1,0,Schematic,ideal,0.004,2019_Mar_17_1941,Face-ClassificationImage,3.0.4,60.254754934042296,
413,0,826,1,1,0,Schematic,ideal,0.004,2019_Mar_17_1941,Face-ClassificationImage,3.0.4,60.254754934042296,
413,1,827,0,1,0,Schematic,ideal,0.004,2019_Mar_17_1941,Face-ClassificationImage,3.0.4,60.254754934042296,
414,0,828,0,1,0,Schematic,ideal,0.004,2019_Mar_17_1941,Face-ClassificationImage,3.0.4,60.254754934042296,
414,1,829,1,0,0,Schematic,ideal,0.004,2019_Mar_17_1941,Face-ClassificationImage,3.0.4,60.254754934042296,
415,0,830,0,0,0,Schematic,ideal,0.004,2019_Mar_17_1941,Face-ClassificationImage,3.0.4,60.254754934042296,
415,1,831,1,0,0,Schematic,ideal,0.004,2019_Mar_17_1941,Face-ClassificationImage,3.0.4,60.254754934042296,
416,0,832,0,1,0,Schematic,ideal,0.004,2019_Mar_17_1941,Face-ClassificationImage,3.0.4,60.254754934042296,
416,1,833,1,1,0,Schematic,ideal,0.004,2019_Mar_17_1941,Face-ClassificationImage,3.0.4,60.254754934042296,
417,0,834,1,1,0,Schematic,ideal,0.004,2019_Mar_17_1941,Face-ClassificationImage,3.0.4,60.254754934042296,
417,1,835,0,0,0,Schematic,ideal,0.004,2019_Mar_17_1941,Face-ClassificationImage,3.0.4,60.254754934042296,
418,0,836,0,1,0,Schematic,ideal,0.004,2019_Mar_17_1941,Face-ClassificationImage,3.0.4,60.254754934042296,
418,1,837,1,1,0,Schematic,ideal,0.004,2019_Mar_17_1941,Face-ClassificationImage,3.0.4,60.254754934042296,
419,0,838,0,0,0,Schematic,ideal,0.004,2019_Mar_17_1941,Face-ClassificationImage,3.0.4,60.254754934042296,
419,1,839,1,1,0,Schematic,ideal,0.004,2019_Mar_17_1941,Face-ClassificationImage,3.0.4,60.254754934042296,
420,0,840,0,1,0,Schematic,ideal,0.004,2019_Mar_17_1941,Face-ClassificationImage,3.0.4,60.254754934042296,
420,1,841,1,1,0,Schematic,ideal,0.004,2019_Mar_17_1941,Face-ClassificationImage,3.0.4,60.254754934042296,
421,0,842,0,0,0,Schematic,ideal,0.004,2019_Mar_17_1941,Face-ClassificationImage,3.0.4,60.254754934042296,
421,1,843,1,1,0,Schematic,ideal,0.004,2019_Mar_17_1941,Face-ClassificationImage,3.0.4,60.254754934042296,
422,0,844,1,1,0,Schematic,ideal,0.004,2019_Mar_17_1941,Face-ClassificationImage,3.0.4,60.254754934042296,
422,1,845,0,0,0,Schematic,ideal,0.004,2019_Mar_17_1941,Face-ClassificationImage,3.0.4,60.254754934042296,
423,0,846,1,0,0,Schematic,ideal,0.004,2019_Mar_17_1941,Face-ClassificationImage,3.0.4,60.254754934042296,
423,1,847,0,0,0,Schematic,ideal,0.004,2019_Mar_17_1941,Face-ClassificationImage,3.0.4,60.254754934042296,
424,0,848,0,1,0,Schematic,ideal,0.004,2019_Mar_17_1941,Face-ClassificationImage,3.0.4,60.254754934042296,
424,1,849,1,1,0,Schematic,ideal,0.004,2019_Mar_17_1941,Face-ClassificationImage,3.0.4,60.254754934042296,
425,0,850,0,0,0,Schematic,ideal,0.004,2019_Mar_17_1941,Face-ClassificationImage,3.0.4,60.254754934042296,
425,1,851,1,1,0,Schematic,ideal,0.004,2019_Mar_17_1941,Face-ClassificationImage,3.0.4,60.254754934042296,
426,0,852,1,1,0,Schematic,ideal,0.004,2019_Mar_17_1941,Face-ClassificationImage,3.0.4,60.254754934042296,
426,1,853,0,1,0,Schematic,ideal,0.004,2019_Mar_17_1941,Face-ClassificationImage,3.0.4,60.254754934042296,
427,0,854,0,0,0,Schematic,ideal,0.004,2019_Mar_17_1941,Face-ClassificationImage,3.0.4,60.254754934042296,
427,1,855,1,1,0,Schematic,ideal,0.004,2019_Mar_17_1941,Face-ClassificationImage,3.0.4,60.254754934042296,
428,0,856,1,1,0,Schematic,ideal,0.004,2019_Mar_17_1941,Face-ClassificationImage,3.0.4,60.254754934042296,
428,1,857,0,1,0,Schematic,ideal,0.004,2019_Mar_17_1941,Face-ClassificationImage,3.0.4,60.254754934042296,
429,0,858,0,1,0,Schematic,ideal,0.004,2019_Mar_17_1941,Face-ClassificationImage,3.0.4,60.254754934042296,
429,1,859,1,1,0,Schematic,ideal,0.004,2019_Mar_17_1941,Face-ClassificationImage,3.0.4,60.254754934042296,
430,0,860,1,1,0,Schematic,ideal,0.004,2019_Mar_17_1941,Face-ClassificationImage,3.0.4,60.254754934042296,
430,1,861,0,0,0,Schematic,ideal,0.004,2019_Mar_17_1941,Face-ClassificationImage,3.0.4,60.254754934042296,
431,0,862,0,0,0,Schematic,ideal,0.004,2019_Mar_17_1941,Face-ClassificationImage,3.0.4,60.254754934042296,
431,1,863,1,1,0,Schematic,ideal,0.004,2019_Mar_17_1941,Face-ClassificationImage,3.0.4,60.254754934042296,
432,0,864,0,1,0,Schematic,ideal,0.004,2019_Mar_17_1941,Face-ClassificationImage,3.0.4,60.254754934042296,
432,1,865,1,1,0,Schematic,ideal,0.004,2019_Mar_17_1941,Face-ClassificationImage,3.0.4,60.254754934042296,
433,0,866,0,0,0,Schematic,ideal,0.004,2019_Mar_17_1941,Face-ClassificationImage,3.0.4,60.254754934042296,
433,1,867,1,0,0,Schematic,ideal,0.004,2019_Mar_17_1941,Face-ClassificationImage,3.0.4,60.254754934042296,
434,0,868,1,1,0,Schematic,ideal,0.004,2019_Mar_17_1941,Face-ClassificationImage,3.0.4,60.254754934042296,
434,1,869,0,0,0,Schematic,ideal,0.004,2019_Mar_17_1941,Face-ClassificationImage,3.0.4,60.254754934042296,
435,0,870,1,0,0,Schematic,ideal,0.004,2019_Mar_17_1941,Face-ClassificationImage,3.0.4,60.254754934042296,
435,1,871,0,1,0,Schematic,ideal,0.004,2019_Mar_17_1941,Face-ClassificationImage,3.0.4,60.254754934042296,
436,0,872,0,1,0,Schematic,ideal,0.004,2019_Mar_17_1941,Face-ClassificationImage,3.0.4,60.254754934042296,
436,1,873,1,1,0,Schematic,ideal,0.004,2019_Mar_17_1941,Face-ClassificationImage,3.0.4,60.254754934042296,
437,0,874,0,0,0,Schematic,ideal,0.004,2019_Mar_17_1941,Face-ClassificationImage,3.0.4,60.254754934042296,
437,1,875,1,0,0,Schematic,ideal,0.004,2019_Mar_17_1941,Face-ClassificationImage,3.0.4,60.254754934042296,
438,0,876,0,1,0,Schematic,ideal,0.004,2019_Mar_17_1941,Face-ClassificationImage,3.0.4,60.254754934042296,
438,1,877,1,1,0,Schematic,ideal,0.004,2019_Mar_17_1941,Face-ClassificationImage,3.0.4,60.254754934042296,
439,0,878,1,1,0,Schematic,ideal,0.004,2019_Mar_17_1941,Face-ClassificationImage,3.0.4,60.254754934042296,
439,1,879,0,1,0,Schematic,ideal,0.004,2019_Mar_17_1941,Face-ClassificationImage,3.0.4,60.254754934042296,
440,0,880,0,1,0,Schematic,ideal,0.004,2019_Mar_17_1941,Face-ClassificationImage,3.0.4,60.254754934042296,
440,1,881,1,1,0,Schematic,ideal,0.004,2019_Mar_17_1941,Face-ClassificationImage,3.0.4,60.254754934042296,
441,0,882,0,1,0,Schematic,ideal,0.004,2019_Mar_17_1941,Face-ClassificationImage,3.0.4,60.254754934042296,
441,1,883,1,0,0,Schematic,ideal,0.004,2019_Mar_17_1941,Face-ClassificationImage,3.0.4,60.254754934042296,
442,0,884,0,1,0,Schematic,ideal,0.004,2019_Mar_17_1941,Face-ClassificationImage,3.0.4,60.254754934042296,
442,1,885,1,0,0,Schematic,ideal,0.004,2019_Mar_17_1941,Face-ClassificationImage,3.0.4,60.254754934042296,
443,0,886,1,0,0,Schematic,ideal,0.004,2019_Mar_17_1941,Face-ClassificationImage,3.0.4,60.254754934042296,
443,1,887,0,0,0,Schematic,ideal,0.004,2019_Mar_17_1941,Face-ClassificationImage,3.0.4,60.254754934042296,
444,0,888,1,1,0,Schematic,ideal,0.004,2019_Mar_17_1941,Face-ClassificationImage,3.0.4,60.254754934042296,
444,1,889,0,1,0,Schematic,ideal,0.004,2019_Mar_17_1941,Face-ClassificationImage,3.0.4,60.254754934042296,
445,0,890,0,1,0,Schematic,ideal,0.004,2019_Mar_17_1941,Face-ClassificationImage,3.0.4,60.254754934042296,
445,1,891,1,1,0,Schematic,ideal,0.004,2019_Mar_17_1941,Face-ClassificationImage,3.0.4,60.254754934042296,
446,0,892,0,1,0,Schematic,ideal,0.004,2019_Mar_17_1941,Face-ClassificationImage,3.0.4,60.254754934042296,
446,1,893,1,1,0,Schematic,ideal,0.004,2019_Mar_17_1941,Face-ClassificationImage,3.0.4,60.254754934042296,
447,0,894,0,1,0,Schematic,ideal,0.004,2019_Mar_17_1941,Face-ClassificationImage,3.0.4,60.254754934042296,
447,1,895,1,1,0,Schematic,ideal,0.004,2019_Mar_17_1941,Face-ClassificationImage,3.0.4,60.254754934042296,
448,0,896,0,0,0,Schematic,ideal,0.004,2019_Mar_17_1941,Face-ClassificationImage,3.0.4,60.254754934042296,
448,1,897,1,1,0,Schematic,ideal,0.004,2019_Mar_17_1941,Face-ClassificationImage,3.0.4,60.254754934042296,
449,0,898,0,0,0,Schematic,ideal,0.004,2019_Mar_17_1941,Face-ClassificationImage,3.0.4,60.254754934042296,
449,1,899,1,1,0,Schematic,ideal,0.004,2019_Mar_17_1941,Face-ClassificationImage,3.0.4,60.254754934042296,
450,0,900,0,1,0,Schematic,ideal,0.004,2019_Mar_17_1941,Face-ClassificationImage,3.0.4,60.254754934042296,
450,1,901,1,1,0,Schematic,ideal,0.004,2019_Mar_17_1941,Face-ClassificationImage,3.0.4,60.254754934042296,
451,0,902,0,1,0,Schematic,ideal,0.004,2019_Mar_17_1941,Face-ClassificationImage,3.0.4,60.254754934042296,
451,1,903,1,1,0,Schematic,ideal,0.004,2019_Mar_17_1941,Face-ClassificationImage,3.0.4,60.254754934042296,
452,0,904,0,1,0,Schematic,ideal,0.004,2019_Mar_17_1941,Face-ClassificationImage,3.0.4,60.254754934042296,
452,1,905,1,0,0,Schematic,ideal,0.004,2019_Mar_17_1941,Face-ClassificationImage,3.0.4,60.254754934042296,
453,0,906,1,1,0,Schematic,ideal,0.004,2019_Mar_17_1941,Face-ClassificationImage,3.0.4,60.254754934042296,
453,1,907,0,1,0,Schematic,ideal,0.004,2019_Mar_17_1941,Face-ClassificationImage,3.0.4,60.254754934042296,
454,0,908,1,1,0,Schematic,ideal,0.004,2019_Mar_17_1941,Face-ClassificationImage,3.0.4,60.254754934042296,
454,1,909,0,1,0,Schematic,ideal,0.004,2019_Mar_17_1941,Face-ClassificationImage,3.0.4,60.254754934042296,
455,0,910,1,1,0,Schematic,ideal,0.004,2019_Mar_17_1941,Face-ClassificationImage,3.0.4,60.254754934042296,
455,1,911,0,1,0,Schematic,ideal,0.004,2019_Mar_17_1941,Face-ClassificationImage,3.0.4,60.254754934042296,
456,0,912,0,1,0,Schematic,ideal,0.004,2019_Mar_17_1941,Face-ClassificationImage,3.0.4,60.254754934042296,
456,1,913,1,0,0,Schematic,ideal,0.004,2019_Mar_17_1941,Face-ClassificationImage,3.0.4,60.254754934042296,
457,0,914,1,0,0,Schematic,ideal,0.004,2019_Mar_17_1941,Face-ClassificationImage,3.0.4,60.254754934042296,
457,1,915,0,0,0,Schematic,ideal,0.004,2019_Mar_17_1941,Face-ClassificationImage,3.0.4,60.254754934042296,
458,0,916,1,1,0,Schematic,ideal,0.004,2019_Mar_17_1941,Face-ClassificationImage,3.0.4,60.254754934042296,
458,1,917,0,1,0,Schematic,ideal,0.004,2019_Mar_17_1941,Face-ClassificationImage,3.0.4,60.254754934042296,
459,0,918,0,1,0,Schematic,ideal,0.004,2019_Mar_17_1941,Face-ClassificationImage,3.0.4,60.254754934042296,
459,1,919,1,1,0,Schematic,ideal,0.004,2019_Mar_17_1941,Face-ClassificationImage,3.0.4,60.254754934042296,
460,0,920,1,1,0,Schematic,ideal,0.004,2019_Mar_17_1941,Face-ClassificationImage,3.0.4,60.254754934042296,
460,1,921,0,1,0,Schematic,ideal,0.004,2019_Mar_17_1941,Face-ClassificationImage,3.0.4,60.254754934042296,
461,0,922,0,0,0,Schematic,ideal,0.004,2019_Mar_17_1941,Face-ClassificationImage,3.0.4,60.254754934042296,
461,1,923,1,1,0,Schematic,ideal,0.004,2019_Mar_17_1941,Face-ClassificationImage,3.0.4,60.254754934042296,
462,0,924,1,1,0,Schematic,ideal,0.004,2019_Mar_17_1941,Face-ClassificationImage,3.0.4,60.254754934042296,
462,1,925,0,0,0,Schematic,ideal,0.004,2019_Mar_17_1941,Face-ClassificationImage,3.0.4,60.254754934042296,
463,0,926,1,0,0,Schematic,ideal,0.004,2019_Mar_17_1941,Face-ClassificationImage,3.0.4,60.254754934042296,
463,1,927,0,1,0,Schematic,ideal,0.004,2019_Mar_17_1941,Face-ClassificationImage,3.0.4,60.254754934042296,
464,0,928,0,1,0,Schematic,ideal,0.004,2019_Mar_17_1941,Face-ClassificationImage,3.0.4,60.254754934042296,
464,1,929,1,1,0,Schematic,ideal,0.004,2019_Mar_17_1941,Face-ClassificationImage,3.0.4,60.254754934042296,
465,0,930,0,1,0,Schematic,ideal,0.004,2019_Mar_17_1941,Face-ClassificationImage,3.0.4,60.254754934042296,
465,1,931,1,0,0,Schematic,ideal,0.004,2019_Mar_17_1941,Face-ClassificationImage,3.0.4,60.254754934042296,
466,0,932,0,0,0,Schematic,ideal,0.004,2019_Mar_17_1941,Face-ClassificationImage,3.0.4,60.254754934042296,
466,1,933,1,1,0,Schematic,ideal,0.004,2019_Mar_17_1941,Face-ClassificationImage,3.0.4,60.254754934042296,
467,0,934,0,1,0,Schematic,ideal,0.004,2019_Mar_17_1941,Face-ClassificationImage,3.0.4,60.254754934042296,
467,1,935,1,1,0,Schematic,ideal,0.004,2019_Mar_17_1941,Face-ClassificationImage,3.0.4,60.254754934042296,
468,0,936,1,1,0,Schematic,ideal,0.004,2019_Mar_17_1941,Face-ClassificationImage,3.0.4,60.254754934042296,
468,1,937,0,1,0,Schematic,ideal,0.004,2019_Mar_17_1941,Face-ClassificationImage,3.0.4,60.254754934042296,
469,0,938,0,1,0,Schematic,ideal,0.004,2019_Mar_17_1941,Face-ClassificationImage,3.0.4,60.254754934042296,
469,1,939,1,1,0,Schematic,ideal,0.004,2019_Mar_17_1941,Face-ClassificationImage,3.0.4,60.254754934042296,
470,0,940,0,1,0,Schematic,ideal,0.004,2019_Mar_17_1941,Face-ClassificationImage,3.0.4,60.254754934042296,
470,1,941,1,0,0,Schematic,ideal,0.004,2019_Mar_17_1941,Face-ClassificationImage,3.0.4,60.254754934042296,
471,0,942,1,1,0,Schematic,ideal,0.004,2019_Mar_17_1941,Face-ClassificationImage,3.0.4,60.254754934042296,
471,1,943,0,0,0,Schematic,ideal,0.004,2019_Mar_17_1941,Face-ClassificationImage,3.0.4,60.254754934042296,
472,0,944,1,1,0,Schematic,ideal,0.004,2019_Mar_17_1941,Face-ClassificationImage,3.0.4,60.254754934042296,
