trials.thisRepN,trials.thisTrialN,trials.thisN,trials.thisIndex,correct,rt,Face,participant,threshold,date,expName,psychopyVersion,frameRate,
0,0,0,0,1,0,Real,ideal,0.013,2019_Mar_15_2201,Face-ClassificationImage,3.0.4,60.19668049123481,
0,1,1,1,0,0,Real,ideal,0.013,2019_Mar_15_2201,Face-ClassificationImage,3.0.4,60.19668049123481,
1,0,2,0,0,0,Real,ideal,0.013,2019_Mar_15_2201,Face-ClassificationImage,3.0.4,60.19668049123481,
1,1,3,1,1,0,Real,ideal,0.013,2019_Mar_15_2201,Face-ClassificationImage,3.0.4,60.19668049123481,
2,0,4,0,0,0,Real,ideal,0.013,2019_Mar_15_2201,Face-ClassificationImage,3.0.4,60.19668049123481,
2,1,5,1,0,0,Real,ideal,0.013,2019_Mar_15_2201,Face-ClassificationImage,3.0.4,60.19668049123481,
3,0,6,1,1,0,Real,ideal,0.013,2019_Mar_15_2201,Face-ClassificationImage,3.0.4,60.19668049123481,
3,1,7,0,0,0,Real,ideal,0.013,2019_Mar_15_2201,Face-ClassificationImage,3.0.4,60.19668049123481,
4,0,8,0,1,0,Real,ideal,0.013,2019_Mar_15_2201,Face-ClassificationImage,3.0.4,60.19668049123481,
4,1,9,1,1,0,Real,ideal,0.013,2019_Mar_15_2201,Face-ClassificationImage,3.0.4,60.19668049123481,
5,0,10,0,1,0,Real,ideal,0.013,2019_Mar_15_2201,Face-ClassificationImage,3.0.4,60.19668049123481,
5,1,11,1,1,0,Real,ideal,0.013,2019_Mar_15_2201,Face-ClassificationImage,3.0.4,60.19668049123481,
6,0,12,0,1,0,Real,ideal,0.013,2019_Mar_15_2201,Face-ClassificationImage,3.0.4,60.19668049123481,
6,1,13,1,0,0,Real,ideal,0.013,2019_Mar_15_2201,Face-ClassificationImage,3.0.4,60.19668049123481,
7,0,14,1,1,0,Real,ideal,0.013,2019_Mar_15_2201,Face-ClassificationImage,3.0.4,60.19668049123481,
7,1,15,0,1,0,Real,ideal,0.013,2019_Mar_15_2201,Face-ClassificationImage,3.0.4,60.19668049123481,
8,0,16,1,1,0,Real,ideal,0.013,2019_Mar_15_2201,Face-ClassificationImage,3.0.4,60.19668049123481,
8,1,17,0,1,0,Real,ideal,0.013,2019_Mar_15_2201,Face-ClassificationImage,3.0.4,60.19668049123481,
9,0,18,0,1,0,Real,ideal,0.013,2019_Mar_15_2201,Face-ClassificationImage,3.0.4,60.19668049123481,
9,1,19,1,1,0,Real,ideal,0.013,2019_Mar_15_2201,Face-ClassificationImage,3.0.4,60.19668049123481,
10,0,20,1,1,0,Real,ideal,0.013,2019_Mar_15_2201,Face-ClassificationImage,3.0.4,60.19668049123481,
10,1,21,0,0,0,Real,ideal,0.013,2019_Mar_15_2201,Face-ClassificationImage,3.0.4,60.19668049123481,
11,0,22,0,0,0,Real,ideal,0.013,2019_Mar_15_2201,Face-ClassificationImage,3.0.4,60.19668049123481,
11,1,23,1,1,0,Real,ideal,0.013,2019_Mar_15_2201,Face-ClassificationImage,3.0.4,60.19668049123481,
12,0,24,0,1,0,Real,ideal,0.013,2019_Mar_15_2201,Face-ClassificationImage,3.0.4,60.19668049123481,
12,1,25,1,1,0,Real,ideal,0.013,2019_Mar_15_2201,Face-ClassificationImage,3.0.4,60.19668049123481,
13,0,26,0,1,0,Real,ideal,0.013,2019_Mar_15_2201,Face-ClassificationImage,3.0.4,60.19668049123481,
13,1,27,1,1,0,Real,ideal,0.013,2019_Mar_15_2201,Face-ClassificationImage,3.0.4,60.19668049123481,
14,0,28,0,1,0,Real,ideal,0.013,2019_Mar_15_2201,Face-ClassificationImage,3.0.4,60.19668049123481,
14,1,29,1,0,0,Real,ideal,0.013,2019_Mar_15_2201,Face-ClassificationImage,3.0.4,60.19668049123481,
15,0,30,0,1,0,Real,ideal,0.013,2019_Mar_15_2201,Face-ClassificationImage,3.0.4,60.19668049123481,
15,1,31,1,1,0,Real,ideal,0.013,2019_Mar_15_2201,Face-ClassificationImage,3.0.4,60.19668049123481,
16,0,32,1,1,0,Real,ideal,0.013,2019_Mar_15_2201,Face-ClassificationImage,3.0.4,60.19668049123481,
16,1,33,0,0,0,Real,ideal,0.013,2019_Mar_15_2201,Face-ClassificationImage,3.0.4,60.19668049123481,
17,0,34,0,1,0,Real,ideal,0.013,2019_Mar_15_2201,Face-ClassificationImage,3.0.4,60.19668049123481,
17,1,35,1,0,0,Real,ideal,0.013,2019_Mar_15_2201,Face-ClassificationImage,3.0.4,60.19668049123481,
18,0,36,0,1,0,Real,ideal,0.013,2019_Mar_15_2201,Face-ClassificationImage,3.0.4,60.19668049123481,
18,1,37,1,1,0,Real,ideal,0.013,2019_Mar_15_2201,Face-ClassificationImage,3.0.4,60.19668049123481,
19,0,38,1,0,0,Real,ideal,0.013,2019_Mar_15_2201,Face-ClassificationImage,3.0.4,60.19668049123481,
19,1,39,0,1,0,Real,ideal,0.013,2019_Mar_15_2201,Face-ClassificationImage,3.0.4,60.19668049123481,
20,0,40,0,1,0,Real,ideal,0.013,2019_Mar_15_2201,Face-ClassificationImage,3.0.4,60.19668049123481,
20,1,41,1,0,0,Real,ideal,0.013,2019_Mar_15_2201,Face-ClassificationImage,3.0.4,60.19668049123481,
21,0,42,1,1,0,Real,ideal,0.013,2019_Mar_15_2201,Face-ClassificationImage,3.0.4,60.19668049123481,
21,1,43,0,1,0,Real,ideal,0.013,2019_Mar_15_2201,Face-ClassificationImage,3.0.4,60.19668049123481,
22,0,44,0,1,0,Real,ideal,0.013,2019_Mar_15_2201,Face-ClassificationImage,3.0.4,60.19668049123481,
22,1,45,1,1,0,Real,ideal,0.013,2019_Mar_15_2201,Face-ClassificationImage,3.0.4,60.19668049123481,
23,0,46,0,1,0,Real,ideal,0.013,2019_Mar_15_2201,Face-ClassificationImage,3.0.4,60.19668049123481,
23,1,47,1,1,0,Real,ideal,0.013,2019_Mar_15_2201,Face-ClassificationImage,3.0.4,60.19668049123481,
24,0,48,0,0,0,Real,ideal,0.013,2019_Mar_15_2201,Face-ClassificationImage,3.0.4,60.19668049123481,
24,1,49,1,1,0,Real,ideal,0.013,2019_Mar_15_2201,Face-ClassificationImage,3.0.4,60.19668049123481,
25,0,50,0,1,0,Real,ideal,0.013,2019_Mar_15_2201,Face-ClassificationImage,3.0.4,60.19668049123481,
25,1,51,1,1,0,Real,ideal,0.013,2019_Mar_15_2201,Face-ClassificationImage,3.0.4,60.19668049123481,
26,0,52,0,1,0,Real,ideal,0.013,2019_Mar_15_2201,Face-ClassificationImage,3.0.4,60.19668049123481,
26,1,53,1,0,0,Real,ideal,0.013,2019_Mar_15_2201,Face-ClassificationImage,3.0.4,60.19668049123481,
27,0,54,1,1,0,Real,ideal,0.013,2019_Mar_15_2201,Face-ClassificationImage,3.0.4,60.19668049123481,
27,1,55,0,0,0,Real,ideal,0.013,2019_Mar_15_2201,Face-ClassificationImage,3.0.4,60.19668049123481,
28,0,56,0,1,0,Real,ideal,0.013,2019_Mar_15_2201,Face-ClassificationImage,3.0.4,60.19668049123481,
28,1,57,1,0,0,Real,ideal,0.013,2019_Mar_15_2201,Face-ClassificationImage,3.0.4,60.19668049123481,
29,0,58,0,0,0,Real,ideal,0.013,2019_Mar_15_2201,Face-ClassificationImage,3.0.4,60.19668049123481,
29,1,59,1,1,0,Real,ideal,0.013,2019_Mar_15_2201,Face-ClassificationImage,3.0.4,60.19668049123481,
30,0,60,1,0,0,Real,ideal,0.013,2019_Mar_15_2201,Face-ClassificationImage,3.0.4,60.19668049123481,
30,1,61,0,1,0,Real,ideal,0.013,2019_Mar_15_2201,Face-ClassificationImage,3.0.4,60.19668049123481,
31,0,62,0,1,0,Real,ideal,0.013,2019_Mar_15_2201,Face-ClassificationImage,3.0.4,60.19668049123481,
31,1,63,1,1,0,Real,ideal,0.013,2019_Mar_15_2201,Face-ClassificationImage,3.0.4,60.19668049123481,
32,0,64,0,1,0,Real,ideal,0.013,2019_Mar_15_2201,Face-ClassificationImage,3.0.4,60.19668049123481,
32,1,65,1,1,0,Real,ideal,0.013,2019_Mar_15_2201,Face-ClassificationImage,3.0.4,60.19668049123481,
33,0,66,0,1,0,Real,ideal,0.013,2019_Mar_15_2201,Face-ClassificationImage,3.0.4,60.19668049123481,
33,1,67,1,1,0,Real,ideal,0.013,2019_Mar_15_2201,Face-ClassificationImage,3.0.4,60.19668049123481,
34,0,68,0,1,0,Real,ideal,0.013,2019_Mar_15_2201,Face-ClassificationImage,3.0.4,60.19668049123481,
34,1,69,1,1,0,Real,ideal,0.013,2019_Mar_15_2201,Face-ClassificationImage,3.0.4,60.19668049123481,
35,0,70,0,0,0,Real,ideal,0.013,2019_Mar_15_2201,Face-ClassificationImage,3.0.4,60.19668049123481,
35,1,71,1,0,0,Real,ideal,0.013,2019_Mar_15_2201,Face-ClassificationImage,3.0.4,60.19668049123481,
36,0,72,1,1,0,Real,ideal,0.013,2019_Mar_15_2201,Face-ClassificationImage,3.0.4,60.19668049123481,
36,1,73,0,1,0,Real,ideal,0.013,2019_Mar_15_2201,Face-ClassificationImage,3.0.4,60.19668049123481,
37,0,74,0,1,0,Real,ideal,0.013,2019_Mar_15_2201,Face-ClassificationImage,3.0.4,60.19668049123481,
37,1,75,1,1,0,Real,ideal,0.013,2019_Mar_15_2201,Face-ClassificationImage,3.0.4,60.19668049123481,
38,0,76,0,1,0,Real,ideal,0.013,2019_Mar_15_2201,Face-ClassificationImage,3.0.4,60.19668049123481,
38,1,77,1,1,0,Real,ideal,0.013,2019_Mar_15_2201,Face-ClassificationImage,3.0.4,60.19668049123481,
39,0,78,1,1,0,Real,ideal,0.013,2019_Mar_15_2201,Face-ClassificationImage,3.0.4,60.19668049123481,
39,1,79,0,1,0,Real,ideal,0.013,2019_Mar_15_2201,Face-ClassificationImage,3.0.4,60.19668049123481,
40,0,80,1,1,0,Real,ideal,0.013,2019_Mar_15_2201,Face-ClassificationImage,3.0.4,60.19668049123481,
40,1,81,0,1,0,Real,ideal,0.013,2019_Mar_15_2201,Face-ClassificationImage,3.0.4,60.19668049123481,
41,0,82,1,0,0,Real,ideal,0.013,2019_Mar_15_2201,Face-ClassificationImage,3.0.4,60.19668049123481,
41,1,83,0,0,0,Real,ideal,0.013,2019_Mar_15_2201,Face-ClassificationImage,3.0.4,60.19668049123481,
42,0,84,1,1,0,Real,ideal,0.013,2019_Mar_15_2201,Face-ClassificationImage,3.0.4,60.19668049123481,
42,1,85,0,1,0,Real,ideal,0.013,2019_Mar_15_2201,Face-ClassificationImage,3.0.4,60.19668049123481,
43,0,86,1,1,0,Real,ideal,0.013,2019_Mar_15_2201,Face-ClassificationImage,3.0.4,60.19668049123481,
43,1,87,0,0,0,Real,ideal,0.013,2019_Mar_15_2201,Face-ClassificationImage,3.0.4,60.19668049123481,
44,0,88,1,0,0,Real,ideal,0.013,2019_Mar_15_2201,Face-ClassificationImage,3.0.4,60.19668049123481,
44,1,89,0,0,0,Real,ideal,0.013,2019_Mar_15_2201,Face-ClassificationImage,3.0.4,60.19668049123481,
45,0,90,0,1,0,Real,ideal,0.013,2019_Mar_15_2201,Face-ClassificationImage,3.0.4,60.19668049123481,
45,1,91,1,1,0,Real,ideal,0.013,2019_Mar_15_2201,Face-ClassificationImage,3.0.4,60.19668049123481,
46,0,92,0,1,0,Real,ideal,0.013,2019_Mar_15_2201,Face-ClassificationImage,3.0.4,60.19668049123481,
46,1,93,1,1,0,Real,ideal,0.013,2019_Mar_15_2201,Face-ClassificationImage,3.0.4,60.19668049123481,
47,0,94,1,1,0,Real,ideal,0.013,2019_Mar_15_2201,Face-ClassificationImage,3.0.4,60.19668049123481,
47,1,95,0,0,0,Real,ideal,0.013,2019_Mar_15_2201,Face-ClassificationImage,3.0.4,60.19668049123481,
48,0,96,1,1,0,Real,ideal,0.013,2019_Mar_15_2201,Face-ClassificationImage,3.0.4,60.19668049123481,
48,1,97,0,0,0,Real,ideal,0.013,2019_Mar_15_2201,Face-ClassificationImage,3.0.4,60.19668049123481,
49,0,98,1,1,0,Real,ideal,0.013,2019_Mar_15_2201,Face-ClassificationImage,3.0.4,60.19668049123481,
49,1,99,0,0,0,Real,ideal,0.013,2019_Mar_15_2201,Face-ClassificationImage,3.0.4,60.19668049123481,
50,0,100,0,1,0,Real,ideal,0.013,2019_Mar_15_2201,Face-ClassificationImage,3.0.4,60.19668049123481,
50,1,101,1,1,0,Real,ideal,0.013,2019_Mar_15_2201,Face-ClassificationImage,3.0.4,60.19668049123481,
51,0,102,0,1,0,Real,ideal,0.013,2019_Mar_15_2201,Face-ClassificationImage,3.0.4,60.19668049123481,
51,1,103,1,1,0,Real,ideal,0.013,2019_Mar_15_2201,Face-ClassificationImage,3.0.4,60.19668049123481,
52,0,104,0,1,0,Real,ideal,0.013,2019_Mar_15_2201,Face-ClassificationImage,3.0.4,60.19668049123481,
52,1,105,1,0,0,Real,ideal,0.013,2019_Mar_15_2201,Face-ClassificationImage,3.0.4,60.19668049123481,
53,0,106,1,1,0,Real,ideal,0.013,2019_Mar_15_2201,Face-ClassificationImage,3.0.4,60.19668049123481,
53,1,107,0,1,0,Real,ideal,0.013,2019_Mar_15_2201,Face-ClassificationImage,3.0.4,60.19668049123481,
54,0,108,0,0,0,Real,ideal,0.013,2019_Mar_15_2201,Face-ClassificationImage,3.0.4,60.19668049123481,
54,1,109,1,1,0,Real,ideal,0.013,2019_Mar_15_2201,Face-ClassificationImage,3.0.4,60.19668049123481,
55,0,110,0,1,0,Real,ideal,0.013,2019_Mar_15_2201,Face-ClassificationImage,3.0.4,60.19668049123481,
55,1,111,1,1,0,Real,ideal,0.013,2019_Mar_15_2201,Face-ClassificationImage,3.0.4,60.19668049123481,
56,0,112,1,1,0,Real,ideal,0.013,2019_Mar_15_2201,Face-ClassificationImage,3.0.4,60.19668049123481,
56,1,113,0,0,0,Real,ideal,0.013,2019_Mar_15_2201,Face-ClassificationImage,3.0.4,60.19668049123481,
57,0,114,1,1,0,Real,ideal,0.013,2019_Mar_15_2201,Face-ClassificationImage,3.0.4,60.19668049123481,
57,1,115,0,0,0,Real,ideal,0.013,2019_Mar_15_2201,Face-ClassificationImage,3.0.4,60.19668049123481,
58,0,116,0,1,0,Real,ideal,0.013,2019_Mar_15_2201,Face-ClassificationImage,3.0.4,60.19668049123481,
58,1,117,1,0,0,Real,ideal,0.013,2019_Mar_15_2201,Face-ClassificationImage,3.0.4,60.19668049123481,
59,0,118,0,1,0,Real,ideal,0.013,2019_Mar_15_2201,Face-ClassificationImage,3.0.4,60.19668049123481,
59,1,119,1,1,0,Real,ideal,0.013,2019_Mar_15_2201,Face-ClassificationImage,3.0.4,60.19668049123481,
60,0,120,1,0,0,Real,ideal,0.013,2019_Mar_15_2201,Face-ClassificationImage,3.0.4,60.19668049123481,
60,1,121,0,0,0,Real,ideal,0.013,2019_Mar_15_2201,Face-ClassificationImage,3.0.4,60.19668049123481,
61,0,122,0,1,0,Real,ideal,0.013,2019_Mar_15_2201,Face-ClassificationImage,3.0.4,60.19668049123481,
61,1,123,1,1,0,Real,ideal,0.013,2019_Mar_15_2201,Face-ClassificationImage,3.0.4,60.19668049123481,
62,0,124,0,0,0,Real,ideal,0.013,2019_Mar_15_2201,Face-ClassificationImage,3.0.4,60.19668049123481,
62,1,125,1,1,0,Real,ideal,0.013,2019_Mar_15_2201,Face-ClassificationImage,3.0.4,60.19668049123481,
63,0,126,1,0,0,Real,ideal,0.013,2019_Mar_15_2201,Face-ClassificationImage,3.0.4,60.19668049123481,
63,1,127,0,0,0,Real,ideal,0.013,2019_Mar_15_2201,Face-ClassificationImage,3.0.4,60.19668049123481,
64,0,128,1,0,0,Real,ideal,0.013,2019_Mar_15_2201,Face-ClassificationImage,3.0.4,60.19668049123481,
64,1,129,0,0,0,Real,ideal,0.013,2019_Mar_15_2201,Face-ClassificationImage,3.0.4,60.19668049123481,
65,0,130,0,0,0,Real,ideal,0.013,2019_Mar_15_2201,Face-ClassificationImage,3.0.4,60.19668049123481,
65,1,131,1,1,0,Real,ideal,0.013,2019_Mar_15_2201,Face-ClassificationImage,3.0.4,60.19668049123481,
66,0,132,1,1,0,Real,ideal,0.013,2019_Mar_15_2201,Face-ClassificationImage,3.0.4,60.19668049123481,
66,1,133,0,1,0,Real,ideal,0.013,2019_Mar_15_2201,Face-ClassificationImage,3.0.4,60.19668049123481,
67,0,134,0,1,0,Real,ideal,0.013,2019_Mar_15_2201,Face-ClassificationImage,3.0.4,60.19668049123481,
67,1,135,1,1,0,Real,ideal,0.013,2019_Mar_15_2201,Face-ClassificationImage,3.0.4,60.19668049123481,
68,0,136,1,0,0,Real,ideal,0.013,2019_Mar_15_2201,Face-ClassificationImage,3.0.4,60.19668049123481,
68,1,137,0,0,0,Real,ideal,0.013,2019_Mar_15_2201,Face-ClassificationImage,3.0.4,60.19668049123481,
69,0,138,1,1,0,Real,ideal,0.013,2019_Mar_15_2201,Face-ClassificationImage,3.0.4,60.19668049123481,
69,1,139,0,1,0,Real,ideal,0.013,2019_Mar_15_2201,Face-ClassificationImage,3.0.4,60.19668049123481,
70,0,140,1,0,0,Real,ideal,0.013,2019_Mar_15_2201,Face-ClassificationImage,3.0.4,60.19668049123481,
70,1,141,0,0,0,Real,ideal,0.013,2019_Mar_15_2201,Face-ClassificationImage,3.0.4,60.19668049123481,
71,0,142,1,1,0,Real,ideal,0.013,2019_Mar_15_2201,Face-ClassificationImage,3.0.4,60.19668049123481,
71,1,143,0,0,0,Real,ideal,0.013,2019_Mar_15_2201,Face-ClassificationImage,3.0.4,60.19668049123481,
72,0,144,1,1,0,Real,ideal,0.013,2019_Mar_15_2201,Face-ClassificationImage,3.0.4,60.19668049123481,
72,1,145,0,1,0,Real,ideal,0.013,2019_Mar_15_2201,Face-ClassificationImage,3.0.4,60.19668049123481,
73,0,146,1,1,0,Real,ideal,0.013,2019_Mar_15_2201,Face-ClassificationImage,3.0.4,60.19668049123481,
73,1,147,0,1,0,Real,ideal,0.013,2019_Mar_15_2201,Face-ClassificationImage,3.0.4,60.19668049123481,
74,0,148,0,1,0,Real,ideal,0.013,2019_Mar_15_2201,Face-ClassificationImage,3.0.4,60.19668049123481,
74,1,149,1,0,0,Real,ideal,0.013,2019_Mar_15_2201,Face-ClassificationImage,3.0.4,60.19668049123481,
75,0,150,0,1,0,Real,ideal,0.013,2019_Mar_15_2201,Face-ClassificationImage,3.0.4,60.19668049123481,
75,1,151,1,0,0,Real,ideal,0.013,2019_Mar_15_2201,Face-ClassificationImage,3.0.4,60.19668049123481,
76,0,152,1,1,0,Real,ideal,0.013,2019_Mar_15_2201,Face-ClassificationImage,3.0.4,60.19668049123481,
76,1,153,0,0,0,Real,ideal,0.013,2019_Mar_15_2201,Face-ClassificationImage,3.0.4,60.19668049123481,
77,0,154,0,1,0,Real,ideal,0.013,2019_Mar_15_2201,Face-ClassificationImage,3.0.4,60.19668049123481,
77,1,155,1,1,0,Real,ideal,0.013,2019_Mar_15_2201,Face-ClassificationImage,3.0.4,60.19668049123481,
78,0,156,0,1,0,Real,ideal,0.013,2019_Mar_15_2201,Face-ClassificationImage,3.0.4,60.19668049123481,
78,1,157,1,1,0,Real,ideal,0.013,2019_Mar_15_2201,Face-ClassificationImage,3.0.4,60.19668049123481,
79,0,158,0,1,0,Real,ideal,0.013,2019_Mar_15_2201,Face-ClassificationImage,3.0.4,60.19668049123481,
79,1,159,1,1,0,Real,ideal,0.013,2019_Mar_15_2201,Face-ClassificationImage,3.0.4,60.19668049123481,
80,0,160,0,0,0,Real,ideal,0.013,2019_Mar_15_2201,Face-ClassificationImage,3.0.4,60.19668049123481,
80,1,161,1,1,0,Real,ideal,0.013,2019_Mar_15_2201,Face-ClassificationImage,3.0.4,60.19668049123481,
81,0,162,0,1,0,Real,ideal,0.013,2019_Mar_15_2201,Face-ClassificationImage,3.0.4,60.19668049123481,
81,1,163,1,1,0,Real,ideal,0.013,2019_Mar_15_2201,Face-ClassificationImage,3.0.4,60.19668049123481,
82,0,164,1,1,0,Real,ideal,0.013,2019_Mar_15_2201,Face-ClassificationImage,3.0.4,60.19668049123481,
82,1,165,0,1,0,Real,ideal,0.013,2019_Mar_15_2201,Face-ClassificationImage,3.0.4,60.19668049123481,
83,0,166,0,1,0,Real,ideal,0.013,2019_Mar_15_2201,Face-ClassificationImage,3.0.4,60.19668049123481,
83,1,167,1,0,0,Real,ideal,0.013,2019_Mar_15_2201,Face-ClassificationImage,3.0.4,60.19668049123481,
84,0,168,0,1,0,Real,ideal,0.013,2019_Mar_15_2201,Face-ClassificationImage,3.0.4,60.19668049123481,
84,1,169,1,1,0,Real,ideal,0.013,2019_Mar_15_2201,Face-ClassificationImage,3.0.4,60.19668049123481,
85,0,170,0,1,0,Real,ideal,0.013,2019_Mar_15_2201,Face-ClassificationImage,3.0.4,60.19668049123481,
85,1,171,1,0,0,Real,ideal,0.013,2019_Mar_15_2201,Face-ClassificationImage,3.0.4,60.19668049123481,
86,0,172,1,0,0,Real,ideal,0.013,2019_Mar_15_2201,Face-ClassificationImage,3.0.4,60.19668049123481,
86,1,173,0,1,0,Real,ideal,0.013,2019_Mar_15_2201,Face-ClassificationImage,3.0.4,60.19668049123481,
87,0,174,1,0,0,Real,ideal,0.013,2019_Mar_15_2201,Face-ClassificationImage,3.0.4,60.19668049123481,
87,1,175,0,1,0,Real,ideal,0.013,2019_Mar_15_2201,Face-ClassificationImage,3.0.4,60.19668049123481,
88,0,176,1,1,0,Real,ideal,0.013,2019_Mar_15_2201,Face-ClassificationImage,3.0.4,60.19668049123481,
88,1,177,0,1,0,Real,ideal,0.013,2019_Mar_15_2201,Face-ClassificationImage,3.0.4,60.19668049123481,
89,0,178,0,0,0,Real,ideal,0.013,2019_Mar_15_2201,Face-ClassificationImage,3.0.4,60.19668049123481,
89,1,179,1,0,0,Real,ideal,0.013,2019_Mar_15_2201,Face-ClassificationImage,3.0.4,60.19668049123481,
90,0,180,1,1,0,Real,ideal,0.013,2019_Mar_15_2201,Face-ClassificationImage,3.0.4,60.19668049123481,
90,1,181,0,0,0,Real,ideal,0.013,2019_Mar_15_2201,Face-ClassificationImage,3.0.4,60.19668049123481,
91,0,182,1,0,0,Real,ideal,0.013,2019_Mar_15_2201,Face-ClassificationImage,3.0.4,60.19668049123481,
91,1,183,0,1,0,Real,ideal,0.013,2019_Mar_15_2201,Face-ClassificationImage,3.0.4,60.19668049123481,
92,0,184,1,0,0,Real,ideal,0.013,2019_Mar_15_2201,Face-ClassificationImage,3.0.4,60.19668049123481,
92,1,185,0,0,0,Real,ideal,0.013,2019_Mar_15_2201,Face-ClassificationImage,3.0.4,60.19668049123481,
93,0,186,0,0,0,Real,ideal,0.013,2019_Mar_15_2201,Face-ClassificationImage,3.0.4,60.19668049123481,
93,1,187,1,0,0,Real,ideal,0.013,2019_Mar_15_2201,Face-ClassificationImage,3.0.4,60.19668049123481,
94,0,188,0,1,0,Real,ideal,0.013,2019_Mar_15_2201,Face-ClassificationImage,3.0.4,60.19668049123481,
94,1,189,1,0,0,Real,ideal,0.013,2019_Mar_15_2201,Face-ClassificationImage,3.0.4,60.19668049123481,
95,0,190,1,1,0,Real,ideal,0.013,2019_Mar_15_2201,Face-ClassificationImage,3.0.4,60.19668049123481,
95,1,191,0,1,0,Real,ideal,0.013,2019_Mar_15_2201,Face-ClassificationImage,3.0.4,60.19668049123481,
96,0,192,0,0,0,Real,ideal,0.013,2019_Mar_15_2201,Face-ClassificationImage,3.0.4,60.19668049123481,
96,1,193,1,1,0,Real,ideal,0.013,2019_Mar_15_2201,Face-ClassificationImage,3.0.4,60.19668049123481,
97,0,194,1,0,0,Real,ideal,0.013,2019_Mar_15_2201,Face-ClassificationImage,3.0.4,60.19668049123481,
97,1,195,0,1,0,Real,ideal,0.013,2019_Mar_15_2201,Face-ClassificationImage,3.0.4,60.19668049123481,
98,0,196,1,1,0,Real,ideal,0.013,2019_Mar_15_2201,Face-ClassificationImage,3.0.4,60.19668049123481,
98,1,197,0,0,0,Real,ideal,0.013,2019_Mar_15_2201,Face-ClassificationImage,3.0.4,60.19668049123481,
99,0,198,0,0,0,Real,ideal,0.013,2019_Mar_15_2201,Face-ClassificationImage,3.0.4,60.19668049123481,
99,1,199,1,1,0,Real,ideal,0.013,2019_Mar_15_2201,Face-ClassificationImage,3.0.4,60.19668049123481,
100,0,200,0,1,0,Real,ideal,0.013,2019_Mar_15_2201,Face-ClassificationImage,3.0.4,60.19668049123481,
100,1,201,1,1,0,Real,ideal,0.013,2019_Mar_15_2201,Face-ClassificationImage,3.0.4,60.19668049123481,
101,0,202,0,1,0,Real,ideal,0.013,2019_Mar_15_2201,Face-ClassificationImage,3.0.4,60.19668049123481,
101,1,203,1,1,0,Real,ideal,0.013,2019_Mar_15_2201,Face-ClassificationImage,3.0.4,60.19668049123481,
102,0,204,1,1,0,Real,ideal,0.013,2019_Mar_15_2201,Face-ClassificationImage,3.0.4,60.19668049123481,
102,1,205,0,1,0,Real,ideal,0.013,2019_Mar_15_2201,Face-ClassificationImage,3.0.4,60.19668049123481,
103,0,206,0,1,0,Real,ideal,0.013,2019_Mar_15_2201,Face-ClassificationImage,3.0.4,60.19668049123481,
103,1,207,1,1,0,Real,ideal,0.013,2019_Mar_15_2201,Face-ClassificationImage,3.0.4,60.19668049123481,
104,0,208,1,0,0,Real,ideal,0.013,2019_Mar_15_2201,Face-ClassificationImage,3.0.4,60.19668049123481,
104,1,209,0,0,0,Real,ideal,0.013,2019_Mar_15_2201,Face-ClassificationImage,3.0.4,60.19668049123481,
105,0,210,1,0,0,Real,ideal,0.013,2019_Mar_15_2201,Face-ClassificationImage,3.0.4,60.19668049123481,
105,1,211,0,1,0,Real,ideal,0.013,2019_Mar_15_2201,Face-ClassificationImage,3.0.4,60.19668049123481,
106,0,212,1,1,0,Real,ideal,0.013,2019_Mar_15_2201,Face-ClassificationImage,3.0.4,60.19668049123481,
106,1,213,0,1,0,Real,ideal,0.013,2019_Mar_15_2201,Face-ClassificationImage,3.0.4,60.19668049123481,
107,0,214,0,1,0,Real,ideal,0.013,2019_Mar_15_2201,Face-ClassificationImage,3.0.4,60.19668049123481,
107,1,215,1,1,0,Real,ideal,0.013,2019_Mar_15_2201,Face-ClassificationImage,3.0.4,60.19668049123481,
108,0,216,1,1,0,Real,ideal,0.013,2019_Mar_15_2201,Face-ClassificationImage,3.0.4,60.19668049123481,
108,1,217,0,1,0,Real,ideal,0.013,2019_Mar_15_2201,Face-ClassificationImage,3.0.4,60.19668049123481,
109,0,218,0,1,0,Real,ideal,0.013,2019_Mar_15_2201,Face-ClassificationImage,3.0.4,60.19668049123481,
109,1,219,1,1,0,Real,ideal,0.013,2019_Mar_15_2201,Face-ClassificationImage,3.0.4,60.19668049123481,
110,0,220,0,1,0,Real,ideal,0.013,2019_Mar_15_2201,Face-ClassificationImage,3.0.4,60.19668049123481,
110,1,221,1,1,0,Real,ideal,0.013,2019_Mar_15_2201,Face-ClassificationImage,3.0.4,60.19668049123481,
111,0,222,1,0,0,Real,ideal,0.013,2019_Mar_15_2201,Face-ClassificationImage,3.0.4,60.19668049123481,
111,1,223,0,1,0,Real,ideal,0.013,2019_Mar_15_2201,Face-ClassificationImage,3.0.4,60.19668049123481,
112,0,224,0,1,0,Real,ideal,0.013,2019_Mar_15_2201,Face-ClassificationImage,3.0.4,60.19668049123481,
112,1,225,1,1,0,Real,ideal,0.013,2019_Mar_15_2201,Face-ClassificationImage,3.0.4,60.19668049123481,
113,0,226,0,1,0,Real,ideal,0.013,2019_Mar_15_2201,Face-ClassificationImage,3.0.4,60.19668049123481,
113,1,227,1,1,0,Real,ideal,0.013,2019_Mar_15_2201,Face-ClassificationImage,3.0.4,60.19668049123481,
114,0,228,0,0,0,Real,ideal,0.013,2019_Mar_15_2201,Face-ClassificationImage,3.0.4,60.19668049123481,
114,1,229,1,1,0,Real,ideal,0.013,2019_Mar_15_2201,Face-ClassificationImage,3.0.4,60.19668049123481,
115,0,230,1,0,0,Real,ideal,0.013,2019_Mar_15_2201,Face-ClassificationImage,3.0.4,60.19668049123481,
115,1,231,0,1,0,Real,ideal,0.013,2019_Mar_15_2201,Face-ClassificationImage,3.0.4,60.19668049123481,
116,0,232,1,0,0,Real,ideal,0.013,2019_Mar_15_2201,Face-ClassificationImage,3.0.4,60.19668049123481,
116,1,233,0,0,0,Real,ideal,0.013,2019_Mar_15_2201,Face-ClassificationImage,3.0.4,60.19668049123481,
117,0,234,1,1,0,Real,ideal,0.013,2019_Mar_15_2201,Face-ClassificationImage,3.0.4,60.19668049123481,
117,1,235,0,1,0,Real,ideal,0.013,2019_Mar_15_2201,Face-ClassificationImage,3.0.4,60.19668049123481,
118,0,236,0,1,0,Real,ideal,0.013,2019_Mar_15_2201,Face-ClassificationImage,3.0.4,60.19668049123481,
118,1,237,1,0,0,Real,ideal,0.013,2019_Mar_15_2201,Face-ClassificationImage,3.0.4,60.19668049123481,
119,0,238,1,1,0,Real,ideal,0.013,2019_Mar_15_2201,Face-ClassificationImage,3.0.4,60.19668049123481,
119,1,239,0,1,0,Real,ideal,0.013,2019_Mar_15_2201,Face-ClassificationImage,3.0.4,60.19668049123481,
120,0,240,1,1,0,Real,ideal,0.013,2019_Mar_15_2201,Face-ClassificationImage,3.0.4,60.19668049123481,
120,1,241,0,1,0,Real,ideal,0.013,2019_Mar_15_2201,Face-ClassificationImage,3.0.4,60.19668049123481,
121,0,242,0,0,0,Real,ideal,0.013,2019_Mar_15_2201,Face-ClassificationImage,3.0.4,60.19668049123481,
121,1,243,1,0,0,Real,ideal,0.013,2019_Mar_15_2201,Face-ClassificationImage,3.0.4,60.19668049123481,
122,0,244,0,0,0,Real,ideal,0.013,2019_Mar_15_2201,Face-ClassificationImage,3.0.4,60.19668049123481,
122,1,245,1,0,0,Real,ideal,0.013,2019_Mar_15_2201,Face-ClassificationImage,3.0.4,60.19668049123481,
123,0,246,0,1,0,Real,ideal,0.013,2019_Mar_15_2201,Face-ClassificationImage,3.0.4,60.19668049123481,
123,1,247,1,1,0,Real,ideal,0.013,2019_Mar_15_2201,Face-ClassificationImage,3.0.4,60.19668049123481,
124,0,248,1,1,0,Real,ideal,0.013,2019_Mar_15_2201,Face-ClassificationImage,3.0.4,60.19668049123481,
124,1,249,0,1,0,Real,ideal,0.013,2019_Mar_15_2201,Face-ClassificationImage,3.0.4,60.19668049123481,
125,0,250,1,1,0,Real,ideal,0.013,2019_Mar_15_2201,Face-ClassificationImage,3.0.4,60.19668049123481,
125,1,251,0,1,0,Real,ideal,0.013,2019_Mar_15_2201,Face-ClassificationImage,3.0.4,60.19668049123481,
126,0,252,0,1,0,Real,ideal,0.013,2019_Mar_15_2201,Face-ClassificationImage,3.0.4,60.19668049123481,
126,1,253,1,1,0,Real,ideal,0.013,2019_Mar_15_2201,Face-ClassificationImage,3.0.4,60.19668049123481,
127,0,254,0,1,0,Real,ideal,0.013,2019_Mar_15_2201,Face-ClassificationImage,3.0.4,60.19668049123481,
127,1,255,1,1,0,Real,ideal,0.013,2019_Mar_15_2201,Face-ClassificationImage,3.0.4,60.19668049123481,
128,0,256,1,1,0,Real,ideal,0.013,2019_Mar_15_2201,Face-ClassificationImage,3.0.4,60.19668049123481,
128,1,257,0,0,0,Real,ideal,0.013,2019_Mar_15_2201,Face-ClassificationImage,3.0.4,60.19668049123481,
129,0,258,0,0,0,Real,ideal,0.013,2019_Mar_15_2201,Face-ClassificationImage,3.0.4,60.19668049123481,
129,1,259,1,0,0,Real,ideal,0.013,2019_Mar_15_2201,Face-ClassificationImage,3.0.4,60.19668049123481,
130,0,260,1,0,0,Real,ideal,0.013,2019_Mar_15_2201,Face-ClassificationImage,3.0.4,60.19668049123481,
130,1,261,0,1,0,Real,ideal,0.013,2019_Mar_15_2201,Face-ClassificationImage,3.0.4,60.19668049123481,
131,0,262,0,1,0,Real,ideal,0.013,2019_Mar_15_2201,Face-ClassificationImage,3.0.4,60.19668049123481,
131,1,263,1,1,0,Real,ideal,0.013,2019_Mar_15_2201,Face-ClassificationImage,3.0.4,60.19668049123481,
132,0,264,1,1,0,Real,ideal,0.013,2019_Mar_15_2201,Face-ClassificationImage,3.0.4,60.19668049123481,
132,1,265,0,1,0,Real,ideal,0.013,2019_Mar_15_2201,Face-ClassificationImage,3.0.4,60.19668049123481,
133,0,266,0,0,0,Real,ideal,0.013,2019_Mar_15_2201,Face-ClassificationImage,3.0.4,60.19668049123481,
133,1,267,1,1,0,Real,ideal,0.013,2019_Mar_15_2201,Face-ClassificationImage,3.0.4,60.19668049123481,
134,0,268,0,1,0,Real,ideal,0.013,2019_Mar_15_2201,Face-ClassificationImage,3.0.4,60.19668049123481,
134,1,269,1,1,0,Real,ideal,0.013,2019_Mar_15_2201,Face-ClassificationImage,3.0.4,60.19668049123481,
135,0,270,0,1,0,Real,ideal,0.013,2019_Mar_15_2201,Face-ClassificationImage,3.0.4,60.19668049123481,
135,1,271,1,1,0,Real,ideal,0.013,2019_Mar_15_2201,Face-ClassificationImage,3.0.4,60.19668049123481,
136,0,272,1,1,0,Real,ideal,0.013,2019_Mar_15_2201,Face-ClassificationImage,3.0.4,60.19668049123481,
136,1,273,0,1,0,Real,ideal,0.013,2019_Mar_15_2201,Face-ClassificationImage,3.0.4,60.19668049123481,
137,0,274,1,1,0,Real,ideal,0.013,2019_Mar_15_2201,Face-ClassificationImage,3.0.4,60.19668049123481,
137,1,275,0,0,0,Real,ideal,0.013,2019_Mar_15_2201,Face-ClassificationImage,3.0.4,60.19668049123481,
138,0,276,0,1,0,Real,ideal,0.013,2019_Mar_15_2201,Face-ClassificationImage,3.0.4,60.19668049123481,
138,1,277,1,1,0,Real,ideal,0.013,2019_Mar_15_2201,Face-ClassificationImage,3.0.4,60.19668049123481,
139,0,278,0,1,0,Real,ideal,0.013,2019_Mar_15_2201,Face-ClassificationImage,3.0.4,60.19668049123481,
139,1,279,1,1,0,Real,ideal,0.013,2019_Mar_15_2201,Face-ClassificationImage,3.0.4,60.19668049123481,
140,0,280,1,1,0,Real,ideal,0.013,2019_Mar_15_2201,Face-ClassificationImage,3.0.4,60.19668049123481,
140,1,281,0,1,0,Real,ideal,0.013,2019_Mar_15_2201,Face-ClassificationImage,3.0.4,60.19668049123481,
141,0,282,0,1,0,Real,ideal,0.013,2019_Mar_15_2201,Face-ClassificationImage,3.0.4,60.19668049123481,
141,1,283,1,1,0,Real,ideal,0.013,2019_Mar_15_2201,Face-ClassificationImage,3.0.4,60.19668049123481,
142,0,284,1,0,0,Real,ideal,0.013,2019_Mar_15_2201,Face-ClassificationImage,3.0.4,60.19668049123481,
142,1,285,0,0,0,Real,ideal,0.013,2019_Mar_15_2201,Face-ClassificationImage,3.0.4,60.19668049123481,
143,0,286,0,1,0,Real,ideal,0.013,2019_Mar_15_2201,Face-ClassificationImage,3.0.4,60.19668049123481,
143,1,287,1,0,0,Real,ideal,0.013,2019_Mar_15_2201,Face-ClassificationImage,3.0.4,60.19668049123481,
144,0,288,1,1,0,Real,ideal,0.013,2019_Mar_15_2201,Face-ClassificationImage,3.0.4,60.19668049123481,
144,1,289,0,1,0,Real,ideal,0.013,2019_Mar_15_2201,Face-ClassificationImage,3.0.4,60.19668049123481,
145,0,290,0,0,0,Real,ideal,0.013,2019_Mar_15_2201,Face-ClassificationImage,3.0.4,60.19668049123481,
145,1,291,1,1,0,Real,ideal,0.013,2019_Mar_15_2201,Face-ClassificationImage,3.0.4,60.19668049123481,
146,0,292,0,0,0,Real,ideal,0.013,2019_Mar_15_2201,Face-ClassificationImage,3.0.4,60.19668049123481,
146,1,293,1,1,0,Real,ideal,0.013,2019_Mar_15_2201,Face-ClassificationImage,3.0.4,60.19668049123481,
147,0,294,0,1,0,Real,ideal,0.013,2019_Mar_15_2201,Face-ClassificationImage,3.0.4,60.19668049123481,
147,1,295,1,1,0,Real,ideal,0.013,2019_Mar_15_2201,Face-ClassificationImage,3.0.4,60.19668049123481,
148,0,296,1,0,0,Real,ideal,0.013,2019_Mar_15_2201,Face-ClassificationImage,3.0.4,60.19668049123481,
148,1,297,0,1,0,Real,ideal,0.013,2019_Mar_15_2201,Face-ClassificationImage,3.0.4,60.19668049123481,
149,0,298,1,0,0,Real,ideal,0.013,2019_Mar_15_2201,Face-ClassificationImage,3.0.4,60.19668049123481,
149,1,299,0,0,0,Real,ideal,0.013,2019_Mar_15_2201,Face-ClassificationImage,3.0.4,60.19668049123481,
150,0,300,0,0,0,Real,ideal,0.013,2019_Mar_15_2201,Face-ClassificationImage,3.0.4,60.19668049123481,
150,1,301,1,0,0,Real,ideal,0.013,2019_Mar_15_2201,Face-ClassificationImage,3.0.4,60.19668049123481,
151,0,302,0,1,0,Real,ideal,0.013,2019_Mar_15_2201,Face-ClassificationImage,3.0.4,60.19668049123481,
151,1,303,1,1,0,Real,ideal,0.013,2019_Mar_15_2201,Face-ClassificationImage,3.0.4,60.19668049123481,
152,0,304,1,1,0,Real,ideal,0.013,2019_Mar_15_2201,Face-ClassificationImage,3.0.4,60.19668049123481,
152,1,305,0,1,0,Real,ideal,0.013,2019_Mar_15_2201,Face-ClassificationImage,3.0.4,60.19668049123481,
153,0,306,1,1,0,Real,ideal,0.013,2019_Mar_15_2201,Face-ClassificationImage,3.0.4,60.19668049123481,
153,1,307,0,0,0,Real,ideal,0.013,2019_Mar_15_2201,Face-ClassificationImage,3.0.4,60.19668049123481,
154,0,308,0,1,0,Real,ideal,0.013,2019_Mar_15_2201,Face-ClassificationImage,3.0.4,60.19668049123481,
154,1,309,1,0,0,Real,ideal,0.013,2019_Mar_15_2201,Face-ClassificationImage,3.0.4,60.19668049123481,
155,0,310,1,0,0,Real,ideal,0.013,2019_Mar_15_2201,Face-ClassificationImage,3.0.4,60.19668049123481,
155,1,311,0,1,0,Real,ideal,0.013,2019_Mar_15_2201,Face-ClassificationImage,3.0.4,60.19668049123481,
156,0,312,0,0,0,Real,ideal,0.013,2019_Mar_15_2201,Face-ClassificationImage,3.0.4,60.19668049123481,
156,1,313,1,1,0,Real,ideal,0.013,2019_Mar_15_2201,Face-ClassificationImage,3.0.4,60.19668049123481,
157,0,314,0,1,0,Real,ideal,0.013,2019_Mar_15_2201,Face-ClassificationImage,3.0.4,60.19668049123481,
157,1,315,1,1,0,Real,ideal,0.013,2019_Mar_15_2201,Face-ClassificationImage,3.0.4,60.19668049123481,
158,0,316,1,1,0,Real,ideal,0.013,2019_Mar_15_2201,Face-ClassificationImage,3.0.4,60.19668049123481,
158,1,317,0,1,0,Real,ideal,0.013,2019_Mar_15_2201,Face-ClassificationImage,3.0.4,60.19668049123481,
159,0,318,1,1,0,Real,ideal,0.013,2019_Mar_15_2201,Face-ClassificationImage,3.0.4,60.19668049123481,
159,1,319,0,0,0,Real,ideal,0.013,2019_Mar_15_2201,Face-ClassificationImage,3.0.4,60.19668049123481,
160,0,320,0,0,0,Real,ideal,0.013,2019_Mar_15_2201,Face-ClassificationImage,3.0.4,60.19668049123481,
160,1,321,1,0,0,Real,ideal,0.013,2019_Mar_15_2201,Face-ClassificationImage,3.0.4,60.19668049123481,
161,0,322,1,1,0,Real,ideal,0.013,2019_Mar_15_2201,Face-ClassificationImage,3.0.4,60.19668049123481,
161,1,323,0,1,0,Real,ideal,0.013,2019_Mar_15_2201,Face-ClassificationImage,3.0.4,60.19668049123481,
162,0,324,0,0,0,Real,ideal,0.013,2019_Mar_15_2201,Face-ClassificationImage,3.0.4,60.19668049123481,
162,1,325,1,1,0,Real,ideal,0.013,2019_Mar_15_2201,Face-ClassificationImage,3.0.4,60.19668049123481,
163,0,326,1,1,0,Real,ideal,0.013,2019_Mar_15_2201,Face-ClassificationImage,3.0.4,60.19668049123481,
163,1,327,0,1,0,Real,ideal,0.013,2019_Mar_15_2201,Face-ClassificationImage,3.0.4,60.19668049123481,
164,0,328,1,0,0,Real,ideal,0.013,2019_Mar_15_2201,Face-ClassificationImage,3.0.4,60.19668049123481,
164,1,329,0,1,0,Real,ideal,0.013,2019_Mar_15_2201,Face-ClassificationImage,3.0.4,60.19668049123481,
165,0,330,1,0,0,Real,ideal,0.013,2019_Mar_15_2201,Face-ClassificationImage,3.0.4,60.19668049123481,
165,1,331,0,1,0,Real,ideal,0.013,2019_Mar_15_2201,Face-ClassificationImage,3.0.4,60.19668049123481,
166,0,332,1,1,0,Real,ideal,0.013,2019_Mar_15_2201,Face-ClassificationImage,3.0.4,60.19668049123481,
166,1,333,0,0,0,Real,ideal,0.013,2019_Mar_15_2201,Face-ClassificationImage,3.0.4,60.19668049123481,
167,0,334,1,1,0,Real,ideal,0.013,2019_Mar_15_2201,Face-ClassificationImage,3.0.4,60.19668049123481,
167,1,335,0,0,0,Real,ideal,0.013,2019_Mar_15_2201,Face-ClassificationImage,3.0.4,60.19668049123481,
168,0,336,1,1,0,Real,ideal,0.013,2019_Mar_15_2201,Face-ClassificationImage,3.0.4,60.19668049123481,
168,1,337,0,1,0,Real,ideal,0.013,2019_Mar_15_2201,Face-ClassificationImage,3.0.4,60.19668049123481,
169,0,338,0,1,0,Real,ideal,0.013,2019_Mar_15_2201,Face-ClassificationImage,3.0.4,60.19668049123481,
169,1,339,1,1,0,Real,ideal,0.013,2019_Mar_15_2201,Face-ClassificationImage,3.0.4,60.19668049123481,
170,0,340,0,0,0,Real,ideal,0.013,2019_Mar_15_2201,Face-ClassificationImage,3.0.4,60.19668049123481,
170,1,341,1,0,0,Real,ideal,0.013,2019_Mar_15_2201,Face-ClassificationImage,3.0.4,60.19668049123481,
171,0,342,1,1,0,Real,ideal,0.013,2019_Mar_15_2201,Face-ClassificationImage,3.0.4,60.19668049123481,
171,1,343,0,1,0,Real,ideal,0.013,2019_Mar_15_2201,Face-ClassificationImage,3.0.4,60.19668049123481,
172,0,344,1,1,0,Real,ideal,0.013,2019_Mar_15_2201,Face-ClassificationImage,3.0.4,60.19668049123481,
172,1,345,0,0,0,Real,ideal,0.013,2019_Mar_15_2201,Face-ClassificationImage,3.0.4,60.19668049123481,
173,0,346,1,1,0,Real,ideal,0.013,2019_Mar_15_2201,Face-ClassificationImage,3.0.4,60.19668049123481,
173,1,347,0,1,0,Real,ideal,0.013,2019_Mar_15_2201,Face-ClassificationImage,3.0.4,60.19668049123481,
174,0,348,1,0,0,Real,ideal,0.013,2019_Mar_15_2201,Face-ClassificationImage,3.0.4,60.19668049123481,
174,1,349,0,1,0,Real,ideal,0.013,2019_Mar_15_2201,Face-ClassificationImage,3.0.4,60.19668049123481,
175,0,350,1,0,0,Real,ideal,0.013,2019_Mar_15_2201,Face-ClassificationImage,3.0.4,60.19668049123481,
175,1,351,0,0,0,Real,ideal,0.013,2019_Mar_15_2201,Face-ClassificationImage,3.0.4,60.19668049123481,
176,0,352,0,0,0,Real,ideal,0.013,2019_Mar_15_2201,Face-ClassificationImage,3.0.4,60.19668049123481,
176,1,353,1,1,0,Real,ideal,0.013,2019_Mar_15_2201,Face-ClassificationImage,3.0.4,60.19668049123481,
177,0,354,0,1,0,Real,ideal,0.013,2019_Mar_15_2201,Face-ClassificationImage,3.0.4,60.19668049123481,
177,1,355,1,1,0,Real,ideal,0.013,2019_Mar_15_2201,Face-ClassificationImage,3.0.4,60.19668049123481,
178,0,356,1,0,0,Real,ideal,0.013,2019_Mar_15_2201,Face-ClassificationImage,3.0.4,60.19668049123481,
178,1,357,0,0,0,Real,ideal,0.013,2019_Mar_15_2201,Face-ClassificationImage,3.0.4,60.19668049123481,
179,0,358,0,0,0,Real,ideal,0.013,2019_Mar_15_2201,Face-ClassificationImage,3.0.4,60.19668049123481,
179,1,359,1,1,0,Real,ideal,0.013,2019_Mar_15_2201,Face-ClassificationImage,3.0.4,60.19668049123481,
180,0,360,0,0,0,Real,ideal,0.013,2019_Mar_15_2201,Face-ClassificationImage,3.0.4,60.19668049123481,
180,1,361,1,0,0,Real,ideal,0.013,2019_Mar_15_2201,Face-ClassificationImage,3.0.4,60.19668049123481,
181,0,362,1,1,0,Real,ideal,0.013,2019_Mar_15_2201,Face-ClassificationImage,3.0.4,60.19668049123481,
181,1,363,0,0,0,Real,ideal,0.013,2019_Mar_15_2201,Face-ClassificationImage,3.0.4,60.19668049123481,
182,0,364,1,1,0,Real,ideal,0.013,2019_Mar_15_2201,Face-ClassificationImage,3.0.4,60.19668049123481,
182,1,365,0,1,0,Real,ideal,0.013,2019_Mar_15_2201,Face-ClassificationImage,3.0.4,60.19668049123481,
183,0,366,0,1,0,Real,ideal,0.013,2019_Mar_15_2201,Face-ClassificationImage,3.0.4,60.19668049123481,
183,1,367,1,1,0,Real,ideal,0.013,2019_Mar_15_2201,Face-ClassificationImage,3.0.4,60.19668049123481,
184,0,368,1,1,0,Real,ideal,0.013,2019_Mar_15_2201,Face-ClassificationImage,3.0.4,60.19668049123481,
184,1,369,0,0,0,Real,ideal,0.013,2019_Mar_15_2201,Face-ClassificationImage,3.0.4,60.19668049123481,
185,0,370,1,1,0,Real,ideal,0.013,2019_Mar_15_2201,Face-ClassificationImage,3.0.4,60.19668049123481,
185,1,371,0,1,0,Real,ideal,0.013,2019_Mar_15_2201,Face-ClassificationImage,3.0.4,60.19668049123481,
186,0,372,0,1,0,Real,ideal,0.013,2019_Mar_15_2201,Face-ClassificationImage,3.0.4,60.19668049123481,
186,1,373,1,1,0,Real,ideal,0.013,2019_Mar_15_2201,Face-ClassificationImage,3.0.4,60.19668049123481,
187,0,374,1,1,0,Real,ideal,0.013,2019_Mar_15_2201,Face-ClassificationImage,3.0.4,60.19668049123481,
187,1,375,0,1,0,Real,ideal,0.013,2019_Mar_15_2201,Face-ClassificationImage,3.0.4,60.19668049123481,
188,0,376,1,1,0,Real,ideal,0.013,2019_Mar_15_2201,Face-ClassificationImage,3.0.4,60.19668049123481,
188,1,377,0,1,0,Real,ideal,0.013,2019_Mar_15_2201,Face-ClassificationImage,3.0.4,60.19668049123481,
189,0,378,1,1,0,Real,ideal,0.013,2019_Mar_15_2201,Face-ClassificationImage,3.0.4,60.19668049123481,
189,1,379,0,1,0,Real,ideal,0.013,2019_Mar_15_2201,Face-ClassificationImage,3.0.4,60.19668049123481,
190,0,380,0,1,0,Real,ideal,0.013,2019_Mar_15_2201,Face-ClassificationImage,3.0.4,60.19668049123481,
190,1,381,1,0,0,Real,ideal,0.013,2019_Mar_15_2201,Face-ClassificationImage,3.0.4,60.19668049123481,
191,0,382,1,1,0,Real,ideal,0.013,2019_Mar_15_2201,Face-ClassificationImage,3.0.4,60.19668049123481,
191,1,383,0,1,0,Real,ideal,0.013,2019_Mar_15_2201,Face-ClassificationImage,3.0.4,60.19668049123481,
192,0,384,1,0,0,Real,ideal,0.013,2019_Mar_15_2201,Face-ClassificationImage,3.0.4,60.19668049123481,
192,1,385,0,1,0,Real,ideal,0.013,2019_Mar_15_2201,Face-ClassificationImage,3.0.4,60.19668049123481,
193,0,386,1,1,0,Real,ideal,0.013,2019_Mar_15_2201,Face-ClassificationImage,3.0.4,60.19668049123481,
193,1,387,0,1,0,Real,ideal,0.013,2019_Mar_15_2201,Face-ClassificationImage,3.0.4,60.19668049123481,
194,0,388,0,0,0,Real,ideal,0.013,2019_Mar_15_2201,Face-ClassificationImage,3.0.4,60.19668049123481,
194,1,389,1,1,0,Real,ideal,0.013,2019_Mar_15_2201,Face-ClassificationImage,3.0.4,60.19668049123481,
195,0,390,0,1,0,Real,ideal,0.013,2019_Mar_15_2201,Face-ClassificationImage,3.0.4,60.19668049123481,
195,1,391,1,1,0,Real,ideal,0.013,2019_Mar_15_2201,Face-ClassificationImage,3.0.4,60.19668049123481,
196,0,392,0,1,0,Real,ideal,0.013,2019_Mar_15_2201,Face-ClassificationImage,3.0.4,60.19668049123481,
196,1,393,1,0,0,Real,ideal,0.013,2019_Mar_15_2201,Face-ClassificationImage,3.0.4,60.19668049123481,
197,0,394,0,0,0,Real,ideal,0.013,2019_Mar_15_2201,Face-ClassificationImage,3.0.4,60.19668049123481,
197,1,395,1,0,0,Real,ideal,0.013,2019_Mar_15_2201,Face-ClassificationImage,3.0.4,60.19668049123481,
198,0,396,0,1,0,Real,ideal,0.013,2019_Mar_15_2201,Face-ClassificationImage,3.0.4,60.19668049123481,
198,1,397,1,1,0,Real,ideal,0.013,2019_Mar_15_2201,Face-ClassificationImage,3.0.4,60.19668049123481,
199,0,398,1,0,0,Real,ideal,0.013,2019_Mar_15_2201,Face-ClassificationImage,3.0.4,60.19668049123481,
199,1,399,0,1,0,Real,ideal,0.013,2019_Mar_15_2201,Face-ClassificationImage,3.0.4,60.19668049123481,
200,0,400,0,0,0,Real,ideal,0.013,2019_Mar_15_2201,Face-ClassificationImage,3.0.4,60.19668049123481,
200,1,401,1,1,0,Real,ideal,0.013,2019_Mar_15_2201,Face-ClassificationImage,3.0.4,60.19668049123481,
201,0,402,1,1,0,Real,ideal,0.013,2019_Mar_15_2201,Face-ClassificationImage,3.0.4,60.19668049123481,
201,1,403,0,0,0,Real,ideal,0.013,2019_Mar_15_2201,Face-ClassificationImage,3.0.4,60.19668049123481,
202,0,404,0,1,0,Real,ideal,0.013,2019_Mar_15_2201,Face-ClassificationImage,3.0.4,60.19668049123481,
202,1,405,1,1,0,Real,ideal,0.013,2019_Mar_15_2201,Face-ClassificationImage,3.0.4,60.19668049123481,
203,0,406,1,1,0,Real,ideal,0.013,2019_Mar_15_2201,Face-ClassificationImage,3.0.4,60.19668049123481,
203,1,407,0,0,0,Real,ideal,0.013,2019_Mar_15_2201,Face-ClassificationImage,3.0.4,60.19668049123481,
204,0,408,1,0,0,Real,ideal,0.013,2019_Mar_15_2201,Face-ClassificationImage,3.0.4,60.19668049123481,
204,1,409,0,1,0,Real,ideal,0.013,2019_Mar_15_2201,Face-ClassificationImage,3.0.4,60.19668049123481,
205,0,410,0,1,0,Real,ideal,0.013,2019_Mar_15_2201,Face-ClassificationImage,3.0.4,60.19668049123481,
205,1,411,1,0,0,Real,ideal,0.013,2019_Mar_15_2201,Face-ClassificationImage,3.0.4,60.19668049123481,
206,0,412,1,1,0,Real,ideal,0.013,2019_Mar_15_2201,Face-ClassificationImage,3.0.4,60.19668049123481,
206,1,413,0,0,0,Real,ideal,0.013,2019_Mar_15_2201,Face-ClassificationImage,3.0.4,60.19668049123481,
207,0,414,0,1,0,Real,ideal,0.013,2019_Mar_15_2201,Face-ClassificationImage,3.0.4,60.19668049123481,
207,1,415,1,1,0,Real,ideal,0.013,2019_Mar_15_2201,Face-ClassificationImage,3.0.4,60.19668049123481,
208,0,416,1,1,0,Real,ideal,0.013,2019_Mar_15_2201,Face-ClassificationImage,3.0.4,60.19668049123481,
208,1,417,0,1,0,Real,ideal,0.013,2019_Mar_15_2201,Face-ClassificationImage,3.0.4,60.19668049123481,
209,0,418,1,1,0,Real,ideal,0.013,2019_Mar_15_2201,Face-ClassificationImage,3.0.4,60.19668049123481,
209,1,419,0,1,0,Real,ideal,0.013,2019_Mar_15_2201,Face-ClassificationImage,3.0.4,60.19668049123481,
210,0,420,1,1,0,Real,ideal,0.013,2019_Mar_15_2201,Face-ClassificationImage,3.0.4,60.19668049123481,
210,1,421,0,1,0,Real,ideal,0.013,2019_Mar_15_2201,Face-ClassificationImage,3.0.4,60.19668049123481,
211,0,422,0,0,0,Real,ideal,0.013,2019_Mar_15_2201,Face-ClassificationImage,3.0.4,60.19668049123481,
211,1,423,1,1,0,Real,ideal,0.013,2019_Mar_15_2201,Face-ClassificationImage,3.0.4,60.19668049123481,
212,0,424,1,1,0,Real,ideal,0.013,2019_Mar_15_2201,Face-ClassificationImage,3.0.4,60.19668049123481,
212,1,425,0,0,0,Real,ideal,0.013,2019_Mar_15_2201,Face-ClassificationImage,3.0.4,60.19668049123481,
213,0,426,1,0,0,Real,ideal,0.013,2019_Mar_15_2201,Face-ClassificationImage,3.0.4,60.19668049123481,
213,1,427,0,0,0,Real,ideal,0.013,2019_Mar_15_2201,Face-ClassificationImage,3.0.4,60.19668049123481,
214,0,428,1,1,0,Real,ideal,0.013,2019_Mar_15_2201,Face-ClassificationImage,3.0.4,60.19668049123481,
214,1,429,0,1,0,Real,ideal,0.013,2019_Mar_15_2201,Face-ClassificationImage,3.0.4,60.19668049123481,
215,0,430,1,1,0,Real,ideal,0.013,2019_Mar_15_2201,Face-ClassificationImage,3.0.4,60.19668049123481,
215,1,431,0,1,0,Real,ideal,0.013,2019_Mar_15_2201,Face-ClassificationImage,3.0.4,60.19668049123481,
216,0,432,1,0,0,Real,ideal,0.013,2019_Mar_15_2201,Face-ClassificationImage,3.0.4,60.19668049123481,
216,1,433,0,1,0,Real,ideal,0.013,2019_Mar_15_2201,Face-ClassificationImage,3.0.4,60.19668049123481,
217,0,434,0,1,0,Real,ideal,0.013,2019_Mar_15_2201,Face-ClassificationImage,3.0.4,60.19668049123481,
217,1,435,1,0,0,Real,ideal,0.013,2019_Mar_15_2201,Face-ClassificationImage,3.0.4,60.19668049123481,
218,0,436,0,0,0,Real,ideal,0.013,2019_Mar_15_2201,Face-ClassificationImage,3.0.4,60.19668049123481,
218,1,437,1,1,0,Real,ideal,0.013,2019_Mar_15_2201,Face-ClassificationImage,3.0.4,60.19668049123481,
219,0,438,0,1,0,Real,ideal,0.013,2019_Mar_15_2201,Face-ClassificationImage,3.0.4,60.19668049123481,
219,1,439,1,1,0,Real,ideal,0.013,2019_Mar_15_2201,Face-ClassificationImage,3.0.4,60.19668049123481,
220,0,440,0,0,0,Real,ideal,0.013,2019_Mar_15_2201,Face-ClassificationImage,3.0.4,60.19668049123481,
220,1,441,1,1,0,Real,ideal,0.013,2019_Mar_15_2201,Face-ClassificationImage,3.0.4,60.19668049123481,
221,0,442,1,0,0,Real,ideal,0.013,2019_Mar_15_2201,Face-ClassificationImage,3.0.4,60.19668049123481,
221,1,443,0,0,0,Real,ideal,0.013,2019_Mar_15_2201,Face-ClassificationImage,3.0.4,60.19668049123481,
222,0,444,0,1,0,Real,ideal,0.013,2019_Mar_15_2201,Face-ClassificationImage,3.0.4,60.19668049123481,
222,1,445,1,1,0,Real,ideal,0.013,2019_Mar_15_2201,Face-ClassificationImage,3.0.4,60.19668049123481,
223,0,446,1,0,0,Real,ideal,0.013,2019_Mar_15_2201,Face-ClassificationImage,3.0.4,60.19668049123481,
223,1,447,0,0,0,Real,ideal,0.013,2019_Mar_15_2201,Face-ClassificationImage,3.0.4,60.19668049123481,
224,0,448,1,1,0,Real,ideal,0.013,2019_Mar_15_2201,Face-ClassificationImage,3.0.4,60.19668049123481,
224,1,449,0,1,0,Real,ideal,0.013,2019_Mar_15_2201,Face-ClassificationImage,3.0.4,60.19668049123481,
225,0,450,0,0,0,Real,ideal,0.013,2019_Mar_15_2201,Face-ClassificationImage,3.0.4,60.19668049123481,
225,1,451,1,1,0,Real,ideal,0.013,2019_Mar_15_2201,Face-ClassificationImage,3.0.4,60.19668049123481,
226,0,452,1,1,0,Real,ideal,0.013,2019_Mar_15_2201,Face-ClassificationImage,3.0.4,60.19668049123481,
226,1,453,0,0,0,Real,ideal,0.013,2019_Mar_15_2201,Face-ClassificationImage,3.0.4,60.19668049123481,
227,0,454,0,1,0,Real,ideal,0.013,2019_Mar_15_2201,Face-ClassificationImage,3.0.4,60.19668049123481,
227,1,455,1,1,0,Real,ideal,0.013,2019_Mar_15_2201,Face-ClassificationImage,3.0.4,60.19668049123481,
228,0,456,0,1,0,Real,ideal,0.013,2019_Mar_15_2201,Face-ClassificationImage,3.0.4,60.19668049123481,
228,1,457,1,0,0,Real,ideal,0.013,2019_Mar_15_2201,Face-ClassificationImage,3.0.4,60.19668049123481,
229,0,458,1,1,0,Real,ideal,0.013,2019_Mar_15_2201,Face-ClassificationImage,3.0.4,60.19668049123481,
229,1,459,0,1,0,Real,ideal,0.013,2019_Mar_15_2201,Face-ClassificationImage,3.0.4,60.19668049123481,
230,0,460,1,1,0,Real,ideal,0.013,2019_Mar_15_2201,Face-ClassificationImage,3.0.4,60.19668049123481,
230,1,461,0,1,0,Real,ideal,0.013,2019_Mar_15_2201,Face-ClassificationImage,3.0.4,60.19668049123481,
231,0,462,0,0,0,Real,ideal,0.013,2019_Mar_15_2201,Face-ClassificationImage,3.0.4,60.19668049123481,
231,1,463,1,1,0,Real,ideal,0.013,2019_Mar_15_2201,Face-ClassificationImage,3.0.4,60.19668049123481,
232,0,464,0,1,0,Real,ideal,0.013,2019_Mar_15_2201,Face-ClassificationImage,3.0.4,60.19668049123481,
232,1,465,1,1,0,Real,ideal,0.013,2019_Mar_15_2201,Face-ClassificationImage,3.0.4,60.19668049123481,
233,0,466,1,1,0,Real,ideal,0.013,2019_Mar_15_2201,Face-ClassificationImage,3.0.4,60.19668049123481,
233,1,467,0,1,0,Real,ideal,0.013,2019_Mar_15_2201,Face-ClassificationImage,3.0.4,60.19668049123481,
234,0,468,1,0,0,Real,ideal,0.013,2019_Mar_15_2201,Face-ClassificationImage,3.0.4,60.19668049123481,
234,1,469,0,1,0,Real,ideal,0.013,2019_Mar_15_2201,Face-ClassificationImage,3.0.4,60.19668049123481,
235,0,470,0,0,0,Real,ideal,0.013,2019_Mar_15_2201,Face-ClassificationImage,3.0.4,60.19668049123481,
235,1,471,1,1,0,Real,ideal,0.013,2019_Mar_15_2201,Face-ClassificationImage,3.0.4,60.19668049123481,
236,0,472,0,1,0,Real,ideal,0.013,2019_Mar_15_2201,Face-ClassificationImage,3.0.4,60.19668049123481,
236,1,473,1,1,0,Real,ideal,0.013,2019_Mar_15_2201,Face-ClassificationImage,3.0.4,60.19668049123481,
237,0,474,1,0,0,Real,ideal,0.013,2019_Mar_15_2201,Face-ClassificationImage,3.0.4,60.19668049123481,
237,1,475,0,0,0,Real,ideal,0.013,2019_Mar_15_2201,Face-ClassificationImage,3.0.4,60.19668049123481,
238,0,476,0,1,0,Real,ideal,0.013,2019_Mar_15_2201,Face-ClassificationImage,3.0.4,60.19668049123481,
238,1,477,1,1,0,Real,ideal,0.013,2019_Mar_15_2201,Face-ClassificationImage,3.0.4,60.19668049123481,
239,0,478,1,0,0,Real,ideal,0.013,2019_Mar_15_2201,Face-ClassificationImage,3.0.4,60.19668049123481,
239,1,479,0,0,0,Real,ideal,0.013,2019_Mar_15_2201,Face-ClassificationImage,3.0.4,60.19668049123481,
240,0,480,1,1,0,Real,ideal,0.013,2019_Mar_15_2201,Face-ClassificationImage,3.0.4,60.19668049123481,
240,1,481,0,0,0,Real,ideal,0.013,2019_Mar_15_2201,Face-ClassificationImage,3.0.4,60.19668049123481,
241,0,482,1,1,0,Real,ideal,0.013,2019_Mar_15_2201,Face-ClassificationImage,3.0.4,60.19668049123481,
241,1,483,0,1,0,Real,ideal,0.013,2019_Mar_15_2201,Face-ClassificationImage,3.0.4,60.19668049123481,
242,0,484,0,1,0,Real,ideal,0.013,2019_Mar_15_2201,Face-ClassificationImage,3.0.4,60.19668049123481,
242,1,485,1,1,0,Real,ideal,0.013,2019_Mar_15_2201,Face-ClassificationImage,3.0.4,60.19668049123481,
243,0,486,1,0,0,Real,ideal,0.013,2019_Mar_15_2201,Face-ClassificationImage,3.0.4,60.19668049123481,
243,1,487,0,1,0,Real,ideal,0.013,2019_Mar_15_2201,Face-ClassificationImage,3.0.4,60.19668049123481,
244,0,488,1,1,0,Real,ideal,0.013,2019_Mar_15_2201,Face-ClassificationImage,3.0.4,60.19668049123481,
244,1,489,0,0,0,Real,ideal,0.013,2019_Mar_15_2201,Face-ClassificationImage,3.0.4,60.19668049123481,
245,0,490,0,1,0,Real,ideal,0.013,2019_Mar_15_2201,Face-ClassificationImage,3.0.4,60.19668049123481,
245,1,491,1,1,0,Real,ideal,0.013,2019_Mar_15_2201,Face-ClassificationImage,3.0.4,60.19668049123481,
246,0,492,1,1,0,Real,ideal,0.013,2019_Mar_15_2201,Face-ClassificationImage,3.0.4,60.19668049123481,
246,1,493,0,1,0,Real,ideal,0.013,2019_Mar_15_2201,Face-ClassificationImage,3.0.4,60.19668049123481,
247,0,494,1,1,0,Real,ideal,0.013,2019_Mar_15_2201,Face-ClassificationImage,3.0.4,60.19668049123481,
247,1,495,0,0,0,Real,ideal,0.013,2019_Mar_15_2201,Face-ClassificationImage,3.0.4,60.19668049123481,
248,0,496,0,1,0,Real,ideal,0.013,2019_Mar_15_2201,Face-ClassificationImage,3.0.4,60.19668049123481,
248,1,497,1,1,0,Real,ideal,0.013,2019_Mar_15_2201,Face-ClassificationImage,3.0.4,60.19668049123481,
249,0,498,0,1,0,Real,ideal,0.013,2019_Mar_15_2201,Face-ClassificationImage,3.0.4,60.19668049123481,
249,1,499,1,1,0,Real,ideal,0.013,2019_Mar_15_2201,Face-ClassificationImage,3.0.4,60.19668049123481,
250,0,500,1,1,0,Real,ideal,0.013,2019_Mar_15_2201,Face-ClassificationImage,3.0.4,60.19668049123481,
250,1,501,0,1,0,Real,ideal,0.013,2019_Mar_15_2201,Face-ClassificationImage,3.0.4,60.19668049123481,
251,0,502,1,1,0,Real,ideal,0.013,2019_Mar_15_2201,Face-ClassificationImage,3.0.4,60.19668049123481,
251,1,503,0,1,0,Real,ideal,0.013,2019_Mar_15_2201,Face-ClassificationImage,3.0.4,60.19668049123481,
252,0,504,0,1,0,Real,ideal,0.013,2019_Mar_15_2201,Face-ClassificationImage,3.0.4,60.19668049123481,
252,1,505,1,1,0,Real,ideal,0.013,2019_Mar_15_2201,Face-ClassificationImage,3.0.4,60.19668049123481,
253,0,506,1,0,0,Real,ideal,0.013,2019_Mar_15_2201,Face-ClassificationImage,3.0.4,60.19668049123481,
253,1,507,0,1,0,Real,ideal,0.013,2019_Mar_15_2201,Face-ClassificationImage,3.0.4,60.19668049123481,
254,0,508,0,1,0,Real,ideal,0.013,2019_Mar_15_2201,Face-ClassificationImage,3.0.4,60.19668049123481,
254,1,509,1,1,0,Real,ideal,0.013,2019_Mar_15_2201,Face-ClassificationImage,3.0.4,60.19668049123481,
255,0,510,0,1,0,Real,ideal,0.013,2019_Mar_15_2201,Face-ClassificationImage,3.0.4,60.19668049123481,
255,1,511,1,1,0,Real,ideal,0.013,2019_Mar_15_2201,Face-ClassificationImage,3.0.4,60.19668049123481,
256,0,512,1,1,0,Real,ideal,0.013,2019_Mar_15_2201,Face-ClassificationImage,3.0.4,60.19668049123481,
256,1,513,0,1,0,Real,ideal,0.013,2019_Mar_15_2201,Face-ClassificationImage,3.0.4,60.19668049123481,
257,0,514,0,0,0,Real,ideal,0.013,2019_Mar_15_2201,Face-ClassificationImage,3.0.4,60.19668049123481,
257,1,515,1,1,0,Real,ideal,0.013,2019_Mar_15_2201,Face-ClassificationImage,3.0.4,60.19668049123481,
258,0,516,1,1,0,Real,ideal,0.013,2019_Mar_15_2201,Face-ClassificationImage,3.0.4,60.19668049123481,
258,1,517,0,1,0,Real,ideal,0.013,2019_Mar_15_2201,Face-ClassificationImage,3.0.4,60.19668049123481,
259,0,518,1,1,0,Real,ideal,0.013,2019_Mar_15_2201,Face-ClassificationImage,3.0.4,60.19668049123481,
259,1,519,0,1,0,Real,ideal,0.013,2019_Mar_15_2201,Face-ClassificationImage,3.0.4,60.19668049123481,
260,0,520,1,1,0,Real,ideal,0.013,2019_Mar_15_2201,Face-ClassificationImage,3.0.4,60.19668049123481,
260,1,521,0,1,0,Real,ideal,0.013,2019_Mar_15_2201,Face-ClassificationImage,3.0.4,60.19668049123481,
261,0,522,1,1,0,Real,ideal,0.013,2019_Mar_15_2201,Face-ClassificationImage,3.0.4,60.19668049123481,
261,1,523,0,1,0,Real,ideal,0.013,2019_Mar_15_2201,Face-ClassificationImage,3.0.4,60.19668049123481,
262,0,524,1,1,0,Real,ideal,0.013,2019_Mar_15_2201,Face-ClassificationImage,3.0.4,60.19668049123481,
262,1,525,0,1,0,Real,ideal,0.013,2019_Mar_15_2201,Face-ClassificationImage,3.0.4,60.19668049123481,
263,0,526,0,1,0,Real,ideal,0.013,2019_Mar_15_2201,Face-ClassificationImage,3.0.4,60.19668049123481,
263,1,527,1,1,0,Real,ideal,0.013,2019_Mar_15_2201,Face-ClassificationImage,3.0.4,60.19668049123481,
264,0,528,0,0,0,Real,ideal,0.013,2019_Mar_15_2201,Face-ClassificationImage,3.0.4,60.19668049123481,
264,1,529,1,1,0,Real,ideal,0.013,2019_Mar_15_2201,Face-ClassificationImage,3.0.4,60.19668049123481,
265,0,530,1,0,0,Real,ideal,0.013,2019_Mar_15_2201,Face-ClassificationImage,3.0.4,60.19668049123481,
265,1,531,0,1,0,Real,ideal,0.013,2019_Mar_15_2201,Face-ClassificationImage,3.0.4,60.19668049123481,
266,0,532,0,1,0,Real,ideal,0.013,2019_Mar_15_2201,Face-ClassificationImage,3.0.4,60.19668049123481,
266,1,533,1,1,0,Real,ideal,0.013,2019_Mar_15_2201,Face-ClassificationImage,3.0.4,60.19668049123481,
267,0,534,0,1,0,Real,ideal,0.013,2019_Mar_15_2201,Face-ClassificationImage,3.0.4,60.19668049123481,
267,1,535,1,1,0,Real,ideal,0.013,2019_Mar_15_2201,Face-ClassificationImage,3.0.4,60.19668049123481,
268,0,536,1,1,0,Real,ideal,0.013,2019_Mar_15_2201,Face-ClassificationImage,3.0.4,60.19668049123481,
268,1,537,0,1,0,Real,ideal,0.013,2019_Mar_15_2201,Face-ClassificationImage,3.0.4,60.19668049123481,
269,0,538,0,1,0,Real,ideal,0.013,2019_Mar_15_2201,Face-ClassificationImage,3.0.4,60.19668049123481,
269,1,539,1,1,0,Real,ideal,0.013,2019_Mar_15_2201,Face-ClassificationImage,3.0.4,60.19668049123481,
270,0,540,1,1,0,Real,ideal,0.013,2019_Mar_15_2201,Face-ClassificationImage,3.0.4,60.19668049123481,
270,1,541,0,1,0,Real,ideal,0.013,2019_Mar_15_2201,Face-ClassificationImage,3.0.4,60.19668049123481,
271,0,542,0,1,0,Real,ideal,0.013,2019_Mar_15_2201,Face-ClassificationImage,3.0.4,60.19668049123481,
271,1,543,1,0,0,Real,ideal,0.013,2019_Mar_15_2201,Face-ClassificationImage,3.0.4,60.19668049123481,
272,0,544,1,0,0,Real,ideal,0.013,2019_Mar_15_2201,Face-ClassificationImage,3.0.4,60.19668049123481,
272,1,545,0,1,0,Real,ideal,0.013,2019_Mar_15_2201,Face-ClassificationImage,3.0.4,60.19668049123481,
273,0,546,1,0,0,Real,ideal,0.013,2019_Mar_15_2201,Face-ClassificationImage,3.0.4,60.19668049123481,
273,1,547,0,1,0,Real,ideal,0.013,2019_Mar_15_2201,Face-ClassificationImage,3.0.4,60.19668049123481,
274,0,548,0,1,0,Real,ideal,0.013,2019_Mar_15_2201,Face-ClassificationImage,3.0.4,60.19668049123481,
274,1,549,1,1,0,Real,ideal,0.013,2019_Mar_15_2201,Face-ClassificationImage,3.0.4,60.19668049123481,
275,0,550,0,1,0,Real,ideal,0.013,2019_Mar_15_2201,Face-ClassificationImage,3.0.4,60.19668049123481,
275,1,551,1,1,0,Real,ideal,0.013,2019_Mar_15_2201,Face-ClassificationImage,3.0.4,60.19668049123481,
276,0,552,0,0,0,Real,ideal,0.013,2019_Mar_15_2201,Face-ClassificationImage,3.0.4,60.19668049123481,
276,1,553,1,1,0,Real,ideal,0.013,2019_Mar_15_2201,Face-ClassificationImage,3.0.4,60.19668049123481,
277,0,554,0,1,0,Real,ideal,0.013,2019_Mar_15_2201,Face-ClassificationImage,3.0.4,60.19668049123481,
277,1,555,1,1,0,Real,ideal,0.013,2019_Mar_15_2201,Face-ClassificationImage,3.0.4,60.19668049123481,
278,0,556,1,1,0,Real,ideal,0.013,2019_Mar_15_2201,Face-ClassificationImage,3.0.4,60.19668049123481,
278,1,557,0,1,0,Real,ideal,0.013,2019_Mar_15_2201,Face-ClassificationImage,3.0.4,60.19668049123481,
279,0,558,0,1,0,Real,ideal,0.013,2019_Mar_15_2201,Face-ClassificationImage,3.0.4,60.19668049123481,
279,1,559,1,1,0,Real,ideal,0.013,2019_Mar_15_2201,Face-ClassificationImage,3.0.4,60.19668049123481,
280,0,560,0,0,0,Real,ideal,0.013,2019_Mar_15_2201,Face-ClassificationImage,3.0.4,60.19668049123481,
280,1,561,1,1,0,Real,ideal,0.013,2019_Mar_15_2201,Face-ClassificationImage,3.0.4,60.19668049123481,
281,0,562,0,0,0,Real,ideal,0.013,2019_Mar_15_2201,Face-ClassificationImage,3.0.4,60.19668049123481,
281,1,563,1,0,0,Real,ideal,0.013,2019_Mar_15_2201,Face-ClassificationImage,3.0.4,60.19668049123481,
282,0,564,0,1,0,Real,ideal,0.013,2019_Mar_15_2201,Face-ClassificationImage,3.0.4,60.19668049123481,
282,1,565,1,0,0,Real,ideal,0.013,2019_Mar_15_2201,Face-ClassificationImage,3.0.4,60.19668049123481,
283,0,566,1,0,0,Real,ideal,0.013,2019_Mar_15_2201,Face-ClassificationImage,3.0.4,60.19668049123481,
283,1,567,0,1,0,Real,ideal,0.013,2019_Mar_15_2201,Face-ClassificationImage,3.0.4,60.19668049123481,
284,0,568,1,0,0,Real,ideal,0.013,2019_Mar_15_2201,Face-ClassificationImage,3.0.4,60.19668049123481,
284,1,569,0,1,0,Real,ideal,0.013,2019_Mar_15_2201,Face-ClassificationImage,3.0.4,60.19668049123481,
285,0,570,1,1,0,Real,ideal,0.013,2019_Mar_15_2201,Face-ClassificationImage,3.0.4,60.19668049123481,
285,1,571,0,1,0,Real,ideal,0.013,2019_Mar_15_2201,Face-ClassificationImage,3.0.4,60.19668049123481,
286,0,572,1,1,0,Real,ideal,0.013,2019_Mar_15_2201,Face-ClassificationImage,3.0.4,60.19668049123481,
286,1,573,0,0,0,Real,ideal,0.013,2019_Mar_15_2201,Face-ClassificationImage,3.0.4,60.19668049123481,
287,0,574,1,1,0,Real,ideal,0.013,2019_Mar_15_2201,Face-ClassificationImage,3.0.4,60.19668049123481,
287,1,575,0,1,0,Real,ideal,0.013,2019_Mar_15_2201,Face-ClassificationImage,3.0.4,60.19668049123481,
288,0,576,0,1,0,Real,ideal,0.013,2019_Mar_15_2201,Face-ClassificationImage,3.0.4,60.19668049123481,
288,1,577,1,1,0,Real,ideal,0.013,2019_Mar_15_2201,Face-ClassificationImage,3.0.4,60.19668049123481,
289,0,578,1,0,0,Real,ideal,0.013,2019_Mar_15_2201,Face-ClassificationImage,3.0.4,60.19668049123481,
289,1,579,0,0,0,Real,ideal,0.013,2019_Mar_15_2201,Face-ClassificationImage,3.0.4,60.19668049123481,
290,0,580,1,1,0,Real,ideal,0.013,2019_Mar_15_2201,Face-ClassificationImage,3.0.4,60.19668049123481,
290,1,581,0,1,0,Real,ideal,0.013,2019_Mar_15_2201,Face-ClassificationImage,3.0.4,60.19668049123481,
291,0,582,1,0,0,Real,ideal,0.013,2019_Mar_15_2201,Face-ClassificationImage,3.0.4,60.19668049123481,
291,1,583,0,1,0,Real,ideal,0.013,2019_Mar_15_2201,Face-ClassificationImage,3.0.4,60.19668049123481,
292,0,584,1,1,0,Real,ideal,0.013,2019_Mar_15_2201,Face-ClassificationImage,3.0.4,60.19668049123481,
292,1,585,0,0,0,Real,ideal,0.013,2019_Mar_15_2201,Face-ClassificationImage,3.0.4,60.19668049123481,
293,0,586,1,1,0,Real,ideal,0.013,2019_Mar_15_2201,Face-ClassificationImage,3.0.4,60.19668049123481,
293,1,587,0,1,0,Real,ideal,0.013,2019_Mar_15_2201,Face-ClassificationImage,3.0.4,60.19668049123481,
294,0,588,0,1,0,Real,ideal,0.013,2019_Mar_15_2201,Face-ClassificationImage,3.0.4,60.19668049123481,
294,1,589,1,1,0,Real,ideal,0.013,2019_Mar_15_2201,Face-ClassificationImage,3.0.4,60.19668049123481,
295,0,590,1,1,0,Real,ideal,0.013,2019_Mar_15_2201,Face-ClassificationImage,3.0.4,60.19668049123481,
295,1,591,0,0,0,Real,ideal,0.013,2019_Mar_15_2201,Face-ClassificationImage,3.0.4,60.19668049123481,
296,0,592,0,0,0,Real,ideal,0.013,2019_Mar_15_2201,Face-ClassificationImage,3.0.4,60.19668049123481,
296,1,593,1,1,0,Real,ideal,0.013,2019_Mar_15_2201,Face-ClassificationImage,3.0.4,60.19668049123481,
297,0,594,0,1,0,Real,ideal,0.013,2019_Mar_15_2201,Face-ClassificationImage,3.0.4,60.19668049123481,
297,1,595,1,1,0,Real,ideal,0.013,2019_Mar_15_2201,Face-ClassificationImage,3.0.4,60.19668049123481,
298,0,596,1,1,0,Real,ideal,0.013,2019_Mar_15_2201,Face-ClassificationImage,3.0.4,60.19668049123481,
298,1,597,0,0,0,Real,ideal,0.013,2019_Mar_15_2201,Face-ClassificationImage,3.0.4,60.19668049123481,
299,0,598,1,1,0,Real,ideal,0.013,2019_Mar_15_2201,Face-ClassificationImage,3.0.4,60.19668049123481,
299,1,599,0,0,0,Real,ideal,0.013,2019_Mar_15_2201,Face-ClassificationImage,3.0.4,60.19668049123481,
300,0,600,1,1,0,Real,ideal,0.013,2019_Mar_15_2201,Face-ClassificationImage,3.0.4,60.19668049123481,
300,1,601,0,1,0,Real,ideal,0.013,2019_Mar_15_2201,Face-ClassificationImage,3.0.4,60.19668049123481,
301,0,602,0,1,0,Real,ideal,0.013,2019_Mar_15_2201,Face-ClassificationImage,3.0.4,60.19668049123481,
301,1,603,1,1,0,Real,ideal,0.013,2019_Mar_15_2201,Face-ClassificationImage,3.0.4,60.19668049123481,
302,0,604,1,1,0,Real,ideal,0.013,2019_Mar_15_2201,Face-ClassificationImage,3.0.4,60.19668049123481,
302,1,605,0,1,0,Real,ideal,0.013,2019_Mar_15_2201,Face-ClassificationImage,3.0.4,60.19668049123481,
303,0,606,1,0,0,Real,ideal,0.013,2019_Mar_15_2201,Face-ClassificationImage,3.0.4,60.19668049123481,
303,1,607,0,0,0,Real,ideal,0.013,2019_Mar_15_2201,Face-ClassificationImage,3.0.4,60.19668049123481,
304,0,608,0,0,0,Real,ideal,0.013,2019_Mar_15_2201,Face-ClassificationImage,3.0.4,60.19668049123481,
304,1,609,1,1,0,Real,ideal,0.013,2019_Mar_15_2201,Face-ClassificationImage,3.0.4,60.19668049123481,
305,0,610,1,1,0,Real,ideal,0.013,2019_Mar_15_2201,Face-ClassificationImage,3.0.4,60.19668049123481,
305,1,611,0,1,0,Real,ideal,0.013,2019_Mar_15_2201,Face-ClassificationImage,3.0.4,60.19668049123481,
306,0,612,0,1,0,Real,ideal,0.013,2019_Mar_15_2201,Face-ClassificationImage,3.0.4,60.19668049123481,
306,1,613,1,0,0,Real,ideal,0.013,2019_Mar_15_2201,Face-ClassificationImage,3.0.4,60.19668049123481,
307,0,614,1,0,0,Real,ideal,0.013,2019_Mar_15_2201,Face-ClassificationImage,3.0.4,60.19668049123481,
307,1,615,0,1,0,Real,ideal,0.013,2019_Mar_15_2201,Face-ClassificationImage,3.0.4,60.19668049123481,
308,0,616,0,1,0,Real,ideal,0.013,2019_Mar_15_2201,Face-ClassificationImage,3.0.4,60.19668049123481,
308,1,617,1,0,0,Real,ideal,0.013,2019_Mar_15_2201,Face-ClassificationImage,3.0.4,60.19668049123481,
309,0,618,1,1,0,Real,ideal,0.013,2019_Mar_15_2201,Face-ClassificationImage,3.0.4,60.19668049123481,
309,1,619,0,0,0,Real,ideal,0.013,2019_Mar_15_2201,Face-ClassificationImage,3.0.4,60.19668049123481,
310,0,620,0,1,0,Real,ideal,0.013,2019_Mar_15_2201,Face-ClassificationImage,3.0.4,60.19668049123481,
310,1,621,1,1,0,Real,ideal,0.013,2019_Mar_15_2201,Face-ClassificationImage,3.0.4,60.19668049123481,
311,0,622,1,1,0,Real,ideal,0.013,2019_Mar_15_2201,Face-ClassificationImage,3.0.4,60.19668049123481,
311,1,623,0,1,0,Real,ideal,0.013,2019_Mar_15_2201,Face-ClassificationImage,3.0.4,60.19668049123481,
312,0,624,0,1,0,Real,ideal,0.013,2019_Mar_15_2201,Face-ClassificationImage,3.0.4,60.19668049123481,
312,1,625,1,1,0,Real,ideal,0.013,2019_Mar_15_2201,Face-ClassificationImage,3.0.4,60.19668049123481,
313,0,626,0,0,0,Real,ideal,0.013,2019_Mar_15_2201,Face-ClassificationImage,3.0.4,60.19668049123481,
313,1,627,1,0,0,Real,ideal,0.013,2019_Mar_15_2201,Face-ClassificationImage,3.0.4,60.19668049123481,
314,0,628,1,1,0,Real,ideal,0.013,2019_Mar_15_2201,Face-ClassificationImage,3.0.4,60.19668049123481,
314,1,629,0,0,0,Real,ideal,0.013,2019_Mar_15_2201,Face-ClassificationImage,3.0.4,60.19668049123481,
315,0,630,1,1,0,Real,ideal,0.013,2019_Mar_15_2201,Face-ClassificationImage,3.0.4,60.19668049123481,
315,1,631,0,1,0,Real,ideal,0.013,2019_Mar_15_2201,Face-ClassificationImage,3.0.4,60.19668049123481,
316,0,632,1,1,0,Real,ideal,0.013,2019_Mar_15_2201,Face-ClassificationImage,3.0.4,60.19668049123481,
316,1,633,0,1,0,Real,ideal,0.013,2019_Mar_15_2201,Face-ClassificationImage,3.0.4,60.19668049123481,
317,0,634,1,0,0,Real,ideal,0.013,2019_Mar_15_2201,Face-ClassificationImage,3.0.4,60.19668049123481,
317,1,635,0,1,0,Real,ideal,0.013,2019_Mar_15_2201,Face-ClassificationImage,3.0.4,60.19668049123481,
318,0,636,1,1,0,Real,ideal,0.013,2019_Mar_15_2201,Face-ClassificationImage,3.0.4,60.19668049123481,
318,1,637,0,0,0,Real,ideal,0.013,2019_Mar_15_2201,Face-ClassificationImage,3.0.4,60.19668049123481,
319,0,638,1,1,0,Real,ideal,0.013,2019_Mar_15_2201,Face-ClassificationImage,3.0.4,60.19668049123481,
319,1,639,0,1,0,Real,ideal,0.013,2019_Mar_15_2201,Face-ClassificationImage,3.0.4,60.19668049123481,
320,0,640,1,1,0,Real,ideal,0.013,2019_Mar_15_2201,Face-ClassificationImage,3.0.4,60.19668049123481,
320,1,641,0,0,0,Real,ideal,0.013,2019_Mar_15_2201,Face-ClassificationImage,3.0.4,60.19668049123481,
321,0,642,1,0,0,Real,ideal,0.013,2019_Mar_15_2201,Face-ClassificationImage,3.0.4,60.19668049123481,
321,1,643,0,1,0,Real,ideal,0.013,2019_Mar_15_2201,Face-ClassificationImage,3.0.4,60.19668049123481,
322,0,644,1,1,0,Real,ideal,0.013,2019_Mar_15_2201,Face-ClassificationImage,3.0.4,60.19668049123481,
322,1,645,0,0,0,Real,ideal,0.013,2019_Mar_15_2201,Face-ClassificationImage,3.0.4,60.19668049123481,
323,0,646,1,0,0,Real,ideal,0.013,2019_Mar_15_2201,Face-ClassificationImage,3.0.4,60.19668049123481,
323,1,647,0,1,0,Real,ideal,0.013,2019_Mar_15_2201,Face-ClassificationImage,3.0.4,60.19668049123481,
324,0,648,0,0,0,Real,ideal,0.013,2019_Mar_15_2201,Face-ClassificationImage,3.0.4,60.19668049123481,
324,1,649,1,1,0,Real,ideal,0.013,2019_Mar_15_2201,Face-ClassificationImage,3.0.4,60.19668049123481,
325,0,650,1,0,0,Real,ideal,0.013,2019_Mar_15_2201,Face-ClassificationImage,3.0.4,60.19668049123481,
325,1,651,0,1,0,Real,ideal,0.013,2019_Mar_15_2201,Face-ClassificationImage,3.0.4,60.19668049123481,
326,0,652,0,1,0,Real,ideal,0.013,2019_Mar_15_2201,Face-ClassificationImage,3.0.4,60.19668049123481,
326,1,653,1,0,0,Real,ideal,0.013,2019_Mar_15_2201,Face-ClassificationImage,3.0.4,60.19668049123481,
327,0,654,1,1,0,Real,ideal,0.013,2019_Mar_15_2201,Face-ClassificationImage,3.0.4,60.19668049123481,
327,1,655,0,1,0,Real,ideal,0.013,2019_Mar_15_2201,Face-ClassificationImage,3.0.4,60.19668049123481,
328,0,656,0,1,0,Real,ideal,0.013,2019_Mar_15_2201,Face-ClassificationImage,3.0.4,60.19668049123481,
328,1,657,1,1,0,Real,ideal,0.013,2019_Mar_15_2201,Face-ClassificationImage,3.0.4,60.19668049123481,
329,0,658,0,1,0,Real,ideal,0.013,2019_Mar_15_2201,Face-ClassificationImage,3.0.4,60.19668049123481,
329,1,659,1,1,0,Real,ideal,0.013,2019_Mar_15_2201,Face-ClassificationImage,3.0.4,60.19668049123481,
330,0,660,1,0,0,Real,ideal,0.013,2019_Mar_15_2201,Face-ClassificationImage,3.0.4,60.19668049123481,
330,1,661,0,0,0,Real,ideal,0.013,2019_Mar_15_2201,Face-ClassificationImage,3.0.4,60.19668049123481,
331,0,662,1,1,0,Real,ideal,0.013,2019_Mar_15_2201,Face-ClassificationImage,3.0.4,60.19668049123481,
331,1,663,0,1,0,Real,ideal,0.013,2019_Mar_15_2201,Face-ClassificationImage,3.0.4,60.19668049123481,
332,0,664,1,1,0,Real,ideal,0.013,2019_Mar_15_2201,Face-ClassificationImage,3.0.4,60.19668049123481,
332,1,665,0,0,0,Real,ideal,0.013,2019_Mar_15_2201,Face-ClassificationImage,3.0.4,60.19668049123481,
333,0,666,1,1,0,Real,ideal,0.013,2019_Mar_15_2201,Face-ClassificationImage,3.0.4,60.19668049123481,
333,1,667,0,1,0,Real,ideal,0.013,2019_Mar_15_2201,Face-ClassificationImage,3.0.4,60.19668049123481,
334,0,668,1,1,0,Real,ideal,0.013,2019_Mar_15_2201,Face-ClassificationImage,3.0.4,60.19668049123481,
334,1,669,0,0,0,Real,ideal,0.013,2019_Mar_15_2201,Face-ClassificationImage,3.0.4,60.19668049123481,
335,0,670,1,1,0,Real,ideal,0.013,2019_Mar_15_2201,Face-ClassificationImage,3.0.4,60.19668049123481,
335,1,671,0,1,0,Real,ideal,0.013,2019_Mar_15_2201,Face-ClassificationImage,3.0.4,60.19668049123481,
336,0,672,0,1,0,Real,ideal,0.013,2019_Mar_15_2201,Face-ClassificationImage,3.0.4,60.19668049123481,
336,1,673,1,1,0,Real,ideal,0.013,2019_Mar_15_2201,Face-ClassificationImage,3.0.4,60.19668049123481,
337,0,674,0,1,0,Real,ideal,0.013,2019_Mar_15_2201,Face-ClassificationImage,3.0.4,60.19668049123481,
337,1,675,1,1,0,Real,ideal,0.013,2019_Mar_15_2201,Face-ClassificationImage,3.0.4,60.19668049123481,
338,0,676,0,1,0,Real,ideal,0.013,2019_Mar_15_2201,Face-ClassificationImage,3.0.4,60.19668049123481,
338,1,677,1,1,0,Real,ideal,0.013,2019_Mar_15_2201,Face-ClassificationImage,3.0.4,60.19668049123481,
339,0,678,0,0,0,Real,ideal,0.013,2019_Mar_15_2201,Face-ClassificationImage,3.0.4,60.19668049123481,
339,1,679,1,0,0,Real,ideal,0.013,2019_Mar_15_2201,Face-ClassificationImage,3.0.4,60.19668049123481,
340,0,680,1,1,0,Real,ideal,0.013,2019_Mar_15_2201,Face-ClassificationImage,3.0.4,60.19668049123481,
340,1,681,0,1,0,Real,ideal,0.013,2019_Mar_15_2201,Face-ClassificationImage,3.0.4,60.19668049123481,
341,0,682,0,1,0,Real,ideal,0.013,2019_Mar_15_2201,Face-ClassificationImage,3.0.4,60.19668049123481,
341,1,683,1,1,0,Real,ideal,0.013,2019_Mar_15_2201,Face-ClassificationImage,3.0.4,60.19668049123481,
342,0,684,1,0,0,Real,ideal,0.013,2019_Mar_15_2201,Face-ClassificationImage,3.0.4,60.19668049123481,
342,1,685,0,0,0,Real,ideal,0.013,2019_Mar_15_2201,Face-ClassificationImage,3.0.4,60.19668049123481,
343,0,686,0,1,0,Real,ideal,0.013,2019_Mar_15_2201,Face-ClassificationImage,3.0.4,60.19668049123481,
343,1,687,1,1,0,Real,ideal,0.013,2019_Mar_15_2201,Face-ClassificationImage,3.0.4,60.19668049123481,
344,0,688,0,1,0,Real,ideal,0.013,2019_Mar_15_2201,Face-ClassificationImage,3.0.4,60.19668049123481,
344,1,689,1,0,0,Real,ideal,0.013,2019_Mar_15_2201,Face-ClassificationImage,3.0.4,60.19668049123481,
345,0,690,1,1,0,Real,ideal,0.013,2019_Mar_15_2201,Face-ClassificationImage,3.0.4,60.19668049123481,
345,1,691,0,1,0,Real,ideal,0.013,2019_Mar_15_2201,Face-ClassificationImage,3.0.4,60.19668049123481,
346,0,692,0,1,0,Real,ideal,0.013,2019_Mar_15_2201,Face-ClassificationImage,3.0.4,60.19668049123481,
346,1,693,1,1,0,Real,ideal,0.013,2019_Mar_15_2201,Face-ClassificationImage,3.0.4,60.19668049123481,
347,0,694,0,1,0,Real,ideal,0.013,2019_Mar_15_2201,Face-ClassificationImage,3.0.4,60.19668049123481,
347,1,695,1,0,0,Real,ideal,0.013,2019_Mar_15_2201,Face-ClassificationImage,3.0.4,60.19668049123481,
348,0,696,0,1,0,Real,ideal,0.013,2019_Mar_15_2201,Face-ClassificationImage,3.0.4,60.19668049123481,
348,1,697,1,1,0,Real,ideal,0.013,2019_Mar_15_2201,Face-ClassificationImage,3.0.4,60.19668049123481,
349,0,698,0,1,0,Real,ideal,0.013,2019_Mar_15_2201,Face-ClassificationImage,3.0.4,60.19668049123481,
349,1,699,1,1,0,Real,ideal,0.013,2019_Mar_15_2201,Face-ClassificationImage,3.0.4,60.19668049123481,
350,0,700,1,1,0,Real,ideal,0.013,2019_Mar_15_2201,Face-ClassificationImage,3.0.4,60.19668049123481,
350,1,701,0,1,0,Real,ideal,0.013,2019_Mar_15_2201,Face-ClassificationImage,3.0.4,60.19668049123481,
351,0,702,1,1,0,Real,ideal,0.013,2019_Mar_15_2201,Face-ClassificationImage,3.0.4,60.19668049123481,
351,1,703,0,1,0,Real,ideal,0.013,2019_Mar_15_2201,Face-ClassificationImage,3.0.4,60.19668049123481,
352,0,704,1,0,0,Real,ideal,0.013,2019_Mar_15_2201,Face-ClassificationImage,3.0.4,60.19668049123481,
352,1,705,0,1,0,Real,ideal,0.013,2019_Mar_15_2201,Face-ClassificationImage,3.0.4,60.19668049123481,
353,0,706,0,1,0,Real,ideal,0.013,2019_Mar_15_2201,Face-ClassificationImage,3.0.4,60.19668049123481,
353,1,707,1,0,0,Real,ideal,0.013,2019_Mar_15_2201,Face-ClassificationImage,3.0.4,60.19668049123481,
354,0,708,1,1,0,Real,ideal,0.013,2019_Mar_15_2201,Face-ClassificationImage,3.0.4,60.19668049123481,
354,1,709,0,1,0,Real,ideal,0.013,2019_Mar_15_2201,Face-ClassificationImage,3.0.4,60.19668049123481,
355,0,710,1,1,0,Real,ideal,0.013,2019_Mar_15_2201,Face-ClassificationImage,3.0.4,60.19668049123481,
355,1,711,0,1,0,Real,ideal,0.013,2019_Mar_15_2201,Face-ClassificationImage,3.0.4,60.19668049123481,
356,0,712,0,1,0,Real,ideal,0.013,2019_Mar_15_2201,Face-ClassificationImage,3.0.4,60.19668049123481,
356,1,713,1,1,0,Real,ideal,0.013,2019_Mar_15_2201,Face-ClassificationImage,3.0.4,60.19668049123481,
357,0,714,1,1,0,Real,ideal,0.013,2019_Mar_15_2201,Face-ClassificationImage,3.0.4,60.19668049123481,
357,1,715,0,1,0,Real,ideal,0.013,2019_Mar_15_2201,Face-ClassificationImage,3.0.4,60.19668049123481,
358,0,716,1,1,0,Real,ideal,0.013,2019_Mar_15_2201,Face-ClassificationImage,3.0.4,60.19668049123481,
358,1,717,0,1,0,Real,ideal,0.013,2019_Mar_15_2201,Face-ClassificationImage,3.0.4,60.19668049123481,
359,0,718,1,1,0,Real,ideal,0.013,2019_Mar_15_2201,Face-ClassificationImage,3.0.4,60.19668049123481,
359,1,719,0,1,0,Real,ideal,0.013,2019_Mar_15_2201,Face-ClassificationImage,3.0.4,60.19668049123481,
360,0,720,1,1,0,Real,ideal,0.013,2019_Mar_15_2201,Face-ClassificationImage,3.0.4,60.19668049123481,
360,1,721,0,1,0,Real,ideal,0.013,2019_Mar_15_2201,Face-ClassificationImage,3.0.4,60.19668049123481,
361,0,722,1,0,0,Real,ideal,0.013,2019_Mar_15_2201,Face-ClassificationImage,3.0.4,60.19668049123481,
361,1,723,0,0,0,Real,ideal,0.013,2019_Mar_15_2201,Face-ClassificationImage,3.0.4,60.19668049123481,
362,0,724,1,1,0,Real,ideal,0.013,2019_Mar_15_2201,Face-ClassificationImage,3.0.4,60.19668049123481,
362,1,725,0,1,0,Real,ideal,0.013,2019_Mar_15_2201,Face-ClassificationImage,3.0.4,60.19668049123481,
363,0,726,0,1,0,Real,ideal,0.013,2019_Mar_15_2201,Face-ClassificationImage,3.0.4,60.19668049123481,
363,1,727,1,1,0,Real,ideal,0.013,2019_Mar_15_2201,Face-ClassificationImage,3.0.4,60.19668049123481,
364,0,728,0,1,0,Real,ideal,0.013,2019_Mar_15_2201,Face-ClassificationImage,3.0.4,60.19668049123481,
364,1,729,1,1,0,Real,ideal,0.013,2019_Mar_15_2201,Face-ClassificationImage,3.0.4,60.19668049123481,
365,0,730,0,1,0,Real,ideal,0.013,2019_Mar_15_2201,Face-ClassificationImage,3.0.4,60.19668049123481,
365,1,731,1,1,0,Real,ideal,0.013,2019_Mar_15_2201,Face-ClassificationImage,3.0.4,60.19668049123481,
366,0,732,1,0,0,Real,ideal,0.013,2019_Mar_15_2201,Face-ClassificationImage,3.0.4,60.19668049123481,
366,1,733,0,1,0,Real,ideal,0.013,2019_Mar_15_2201,Face-ClassificationImage,3.0.4,60.19668049123481,
367,0,734,1,1,0,Real,ideal,0.013,2019_Mar_15_2201,Face-ClassificationImage,3.0.4,60.19668049123481,
367,1,735,0,0,0,Real,ideal,0.013,2019_Mar_15_2201,Face-ClassificationImage,3.0.4,60.19668049123481,
368,0,736,1,1,0,Real,ideal,0.013,2019_Mar_15_2201,Face-ClassificationImage,3.0.4,60.19668049123481,
368,1,737,0,1,0,Real,ideal,0.013,2019_Mar_15_2201,Face-ClassificationImage,3.0.4,60.19668049123481,
369,0,738,1,1,0,Real,ideal,0.013,2019_Mar_15_2201,Face-ClassificationImage,3.0.4,60.19668049123481,
369,1,739,0,1,0,Real,ideal,0.013,2019_Mar_15_2201,Face-ClassificationImage,3.0.4,60.19668049123481,
370,0,740,1,1,0,Real,ideal,0.013,2019_Mar_15_2201,Face-ClassificationImage,3.0.4,60.19668049123481,
370,1,741,0,1,0,Real,ideal,0.013,2019_Mar_15_2201,Face-ClassificationImage,3.0.4,60.19668049123481,
371,0,742,1,0,0,Real,ideal,0.013,2019_Mar_15_2201,Face-ClassificationImage,3.0.4,60.19668049123481,
371,1,743,0,0,0,Real,ideal,0.013,2019_Mar_15_2201,Face-ClassificationImage,3.0.4,60.19668049123481,
372,0,744,1,1,0,Real,ideal,0.013,2019_Mar_15_2201,Face-ClassificationImage,3.0.4,60.19668049123481,
372,1,745,0,0,0,Real,ideal,0.013,2019_Mar_15_2201,Face-ClassificationImage,3.0.4,60.19668049123481,
373,0,746,0,0,0,Real,ideal,0.013,2019_Mar_15_2201,Face-ClassificationImage,3.0.4,60.19668049123481,
373,1,747,1,1,0,Real,ideal,0.013,2019_Mar_15_2201,Face-ClassificationImage,3.0.4,60.19668049123481,
374,0,748,0,1,0,Real,ideal,0.013,2019_Mar_15_2201,Face-ClassificationImage,3.0.4,60.19668049123481,
374,1,749,1,1,0,Real,ideal,0.013,2019_Mar_15_2201,Face-ClassificationImage,3.0.4,60.19668049123481,
375,0,750,0,0,0,Real,ideal,0.013,2019_Mar_15_2201,Face-ClassificationImage,3.0.4,60.19668049123481,
375,1,751,1,1,0,Real,ideal,0.013,2019_Mar_15_2201,Face-ClassificationImage,3.0.4,60.19668049123481,
376,0,752,1,1,0,Real,ideal,0.013,2019_Mar_15_2201,Face-ClassificationImage,3.0.4,60.19668049123481,
376,1,753,0,1,0,Real,ideal,0.013,2019_Mar_15_2201,Face-ClassificationImage,3.0.4,60.19668049123481,
377,0,754,0,1,0,Real,ideal,0.013,2019_Mar_15_2201,Face-ClassificationImage,3.0.4,60.19668049123481,
377,1,755,1,1,0,Real,ideal,0.013,2019_Mar_15_2201,Face-ClassificationImage,3.0.4,60.19668049123481,
378,0,756,1,0,0,Real,ideal,0.013,2019_Mar_15_2201,Face-ClassificationImage,3.0.4,60.19668049123481,
378,1,757,0,1,0,Real,ideal,0.013,2019_Mar_15_2201,Face-ClassificationImage,3.0.4,60.19668049123481,
379,0,758,0,1,0,Real,ideal,0.013,2019_Mar_15_2201,Face-ClassificationImage,3.0.4,60.19668049123481,
379,1,759,1,1,0,Real,ideal,0.013,2019_Mar_15_2201,Face-ClassificationImage,3.0.4,60.19668049123481,
380,0,760,1,1,0,Real,ideal,0.013,2019_Mar_15_2201,Face-ClassificationImage,3.0.4,60.19668049123481,
380,1,761,0,1,0,Real,ideal,0.013,2019_Mar_15_2201,Face-ClassificationImage,3.0.4,60.19668049123481,
381,0,762,0,1,0,Real,ideal,0.013,2019_Mar_15_2201,Face-ClassificationImage,3.0.4,60.19668049123481,
381,1,763,1,0,0,Real,ideal,0.013,2019_Mar_15_2201,Face-ClassificationImage,3.0.4,60.19668049123481,
382,0,764,0,1,0,Real,ideal,0.013,2019_Mar_15_2201,Face-ClassificationImage,3.0.4,60.19668049123481,
382,1,765,1,1,0,Real,ideal,0.013,2019_Mar_15_2201,Face-ClassificationImage,3.0.4,60.19668049123481,
383,0,766,0,1,0,Real,ideal,0.013,2019_Mar_15_2201,Face-ClassificationImage,3.0.4,60.19668049123481,
383,1,767,1,0,0,Real,ideal,0.013,2019_Mar_15_2201,Face-ClassificationImage,3.0.4,60.19668049123481,
384,0,768,0,0,0,Real,ideal,0.013,2019_Mar_15_2201,Face-ClassificationImage,3.0.4,60.19668049123481,
384,1,769,1,1,0,Real,ideal,0.013,2019_Mar_15_2201,Face-ClassificationImage,3.0.4,60.19668049123481,
385,0,770,1,1,0,Real,ideal,0.013,2019_Mar_15_2201,Face-ClassificationImage,3.0.4,60.19668049123481,
385,1,771,0,1,0,Real,ideal,0.013,2019_Mar_15_2201,Face-ClassificationImage,3.0.4,60.19668049123481,
386,0,772,0,1,0,Real,ideal,0.013,2019_Mar_15_2201,Face-ClassificationImage,3.0.4,60.19668049123481,
386,1,773,1,1,0,Real,ideal,0.013,2019_Mar_15_2201,Face-ClassificationImage,3.0.4,60.19668049123481,
387,0,774,0,1,0,Real,ideal,0.013,2019_Mar_15_2201,Face-ClassificationImage,3.0.4,60.19668049123481,
387,1,775,1,1,0,Real,ideal,0.013,2019_Mar_15_2201,Face-ClassificationImage,3.0.4,60.19668049123481,
388,0,776,0,0,0,Real,ideal,0.013,2019_Mar_15_2201,Face-ClassificationImage,3.0.4,60.19668049123481,
388,1,777,1,1,0,Real,ideal,0.013,2019_Mar_15_2201,Face-ClassificationImage,3.0.4,60.19668049123481,
389,0,778,0,0,0,Real,ideal,0.013,2019_Mar_15_2201,Face-ClassificationImage,3.0.4,60.19668049123481,
389,1,779,1,1,0,Real,ideal,0.013,2019_Mar_15_2201,Face-ClassificationImage,3.0.4,60.19668049123481,
390,0,780,1,0,0,Real,ideal,0.013,2019_Mar_15_2201,Face-ClassificationImage,3.0.4,60.19668049123481,
390,1,781,0,1,0,Real,ideal,0.013,2019_Mar_15_2201,Face-ClassificationImage,3.0.4,60.19668049123481,
391,0,782,1,1,0,Real,ideal,0.013,2019_Mar_15_2201,Face-ClassificationImage,3.0.4,60.19668049123481,
391,1,783,0,1,0,Real,ideal,0.013,2019_Mar_15_2201,Face-ClassificationImage,3.0.4,60.19668049123481,
392,0,784,0,1,0,Real,ideal,0.013,2019_Mar_15_2201,Face-ClassificationImage,3.0.4,60.19668049123481,
392,1,785,1,1,0,Real,ideal,0.013,2019_Mar_15_2201,Face-ClassificationImage,3.0.4,60.19668049123481,
393,0,786,0,0,0,Real,ideal,0.013,2019_Mar_15_2201,Face-ClassificationImage,3.0.4,60.19668049123481,
393,1,787,1,1,0,Real,ideal,0.013,2019_Mar_15_2201,Face-ClassificationImage,3.0.4,60.19668049123481,
394,0,788,1,1,0,Real,ideal,0.013,2019_Mar_15_2201,Face-ClassificationImage,3.0.4,60.19668049123481,
394,1,789,0,0,0,Real,ideal,0.013,2019_Mar_15_2201,Face-ClassificationImage,3.0.4,60.19668049123481,
395,0,790,0,1,0,Real,ideal,0.013,2019_Mar_15_2201,Face-ClassificationImage,3.0.4,60.19668049123481,
395,1,791,1,0,0,Real,ideal,0.013,2019_Mar_15_2201,Face-ClassificationImage,3.0.4,60.19668049123481,
396,0,792,0,1,0,Real,ideal,0.013,2019_Mar_15_2201,Face-ClassificationImage,3.0.4,60.19668049123481,
396,1,793,1,1,0,Real,ideal,0.013,2019_Mar_15_2201,Face-ClassificationImage,3.0.4,60.19668049123481,
397,0,794,1,1,0,Real,ideal,0.013,2019_Mar_15_2201,Face-ClassificationImage,3.0.4,60.19668049123481,
397,1,795,0,1,0,Real,ideal,0.013,2019_Mar_15_2201,Face-ClassificationImage,3.0.4,60.19668049123481,
398,0,796,0,1,0,Real,ideal,0.013,2019_Mar_15_2201,Face-ClassificationImage,3.0.4,60.19668049123481,
398,1,797,1,1,0,Real,ideal,0.013,2019_Mar_15_2201,Face-ClassificationImage,3.0.4,60.19668049123481,
399,0,798,1,0,0,Real,ideal,0.013,2019_Mar_15_2201,Face-ClassificationImage,3.0.4,60.19668049123481,
399,1,799,0,1,0,Real,ideal,0.013,2019_Mar_15_2201,Face-ClassificationImage,3.0.4,60.19668049123481,
400,0,800,1,1,0,Real,ideal,0.013,2019_Mar_15_2201,Face-ClassificationImage,3.0.4,60.19668049123481,
400,1,801,0,0,0,Real,ideal,0.013,2019_Mar_15_2201,Face-ClassificationImage,3.0.4,60.19668049123481,
401,0,802,0,1,0,Real,ideal,0.013,2019_Mar_15_2201,Face-ClassificationImage,3.0.4,60.19668049123481,
401,1,803,1,1,0,Real,ideal,0.013,2019_Mar_15_2201,Face-ClassificationImage,3.0.4,60.19668049123481,
402,0,804,0,1,0,Real,ideal,0.013,2019_Mar_15_2201,Face-ClassificationImage,3.0.4,60.19668049123481,
402,1,805,1,0,0,Real,ideal,0.013,2019_Mar_15_2201,Face-ClassificationImage,3.0.4,60.19668049123481,
403,0,806,1,0,0,Real,ideal,0.013,2019_Mar_15_2201,Face-ClassificationImage,3.0.4,60.19668049123481,
403,1,807,0,1,0,Real,ideal,0.013,2019_Mar_15_2201,Face-ClassificationImage,3.0.4,60.19668049123481,
404,0,808,1,1,0,Real,ideal,0.013,2019_Mar_15_2201,Face-ClassificationImage,3.0.4,60.19668049123481,
404,1,809,0,1,0,Real,ideal,0.013,2019_Mar_15_2201,Face-ClassificationImage,3.0.4,60.19668049123481,
405,0,810,0,1,0,Real,ideal,0.013,2019_Mar_15_2201,Face-ClassificationImage,3.0.4,60.19668049123481,
405,1,811,1,1,0,Real,ideal,0.013,2019_Mar_15_2201,Face-ClassificationImage,3.0.4,60.19668049123481,
406,0,812,1,1,0,Real,ideal,0.013,2019_Mar_15_2201,Face-ClassificationImage,3.0.4,60.19668049123481,
406,1,813,0,0,0,Real,ideal,0.013,2019_Mar_15_2201,Face-ClassificationImage,3.0.4,60.19668049123481,
407,0,814,1,1,0,Real,ideal,0.013,2019_Mar_15_2201,Face-ClassificationImage,3.0.4,60.19668049123481,
407,1,815,0,1,0,Real,ideal,0.013,2019_Mar_15_2201,Face-ClassificationImage,3.0.4,60.19668049123481,
408,0,816,0,1,0,Real,ideal,0.013,2019_Mar_15_2201,Face-ClassificationImage,3.0.4,60.19668049123481,
408,1,817,1,1,0,Real,ideal,0.013,2019_Mar_15_2201,Face-ClassificationImage,3.0.4,60.19668049123481,
409,0,818,0,1,0,Real,ideal,0.013,2019_Mar_15_2201,Face-ClassificationImage,3.0.4,60.19668049123481,
409,1,819,1,1,0,Real,ideal,0.013,2019_Mar_15_2201,Face-ClassificationImage,3.0.4,60.19668049123481,
410,0,820,0,1,0,Real,ideal,0.013,2019_Mar_15_2201,Face-ClassificationImage,3.0.4,60.19668049123481,
410,1,821,1,1,0,Real,ideal,0.013,2019_Mar_15_2201,Face-ClassificationImage,3.0.4,60.19668049123481,
411,0,822,1,0,0,Real,ideal,0.013,2019_Mar_15_2201,Face-ClassificationImage,3.0.4,60.19668049123481,
411,1,823,0,1,0,Real,ideal,0.013,2019_Mar_15_2201,Face-ClassificationImage,3.0.4,60.19668049123481,
412,0,824,1,1,0,Real,ideal,0.013,2019_Mar_15_2201,Face-ClassificationImage,3.0.4,60.19668049123481,
412,1,825,0,0,0,Real,ideal,0.013,2019_Mar_15_2201,Face-ClassificationImage,3.0.4,60.19668049123481,
413,0,826,1,0,0,Real,ideal,0.013,2019_Mar_15_2201,Face-ClassificationImage,3.0.4,60.19668049123481,
413,1,827,0,1,0,Real,ideal,0.013,2019_Mar_15_2201,Face-ClassificationImage,3.0.4,60.19668049123481,
414,0,828,0,0,0,Real,ideal,0.013,2019_Mar_15_2201,Face-ClassificationImage,3.0.4,60.19668049123481,
414,1,829,1,0,0,Real,ideal,0.013,2019_Mar_15_2201,Face-ClassificationImage,3.0.4,60.19668049123481,
415,0,830,0,1,0,Real,ideal,0.013,2019_Mar_15_2201,Face-ClassificationImage,3.0.4,60.19668049123481,
415,1,831,1,1,0,Real,ideal,0.013,2019_Mar_15_2201,Face-ClassificationImage,3.0.4,60.19668049123481,
416,0,832,1,1,0,Real,ideal,0.013,2019_Mar_15_2201,Face-ClassificationImage,3.0.4,60.19668049123481,
416,1,833,0,1,0,Real,ideal,0.013,2019_Mar_15_2201,Face-ClassificationImage,3.0.4,60.19668049123481,
417,0,834,0,1,0,Real,ideal,0.013,2019_Mar_15_2201,Face-ClassificationImage,3.0.4,60.19668049123481,
417,1,835,1,1,0,Real,ideal,0.013,2019_Mar_15_2201,Face-ClassificationImage,3.0.4,60.19668049123481,
418,0,836,0,0,0,Real,ideal,0.013,2019_Mar_15_2201,Face-ClassificationImage,3.0.4,60.19668049123481,
418,1,837,1,0,0,Real,ideal,0.013,2019_Mar_15_2201,Face-ClassificationImage,3.0.4,60.19668049123481,
419,0,838,0,1,0,Real,ideal,0.013,2019_Mar_15_2201,Face-ClassificationImage,3.0.4,60.19668049123481,
419,1,839,1,1,0,Real,ideal,0.013,2019_Mar_15_2201,Face-ClassificationImage,3.0.4,60.19668049123481,
420,0,840,0,0,0,Real,ideal,0.013,2019_Mar_15_2201,Face-ClassificationImage,3.0.4,60.19668049123481,
420,1,841,1,1,0,Real,ideal,0.013,2019_Mar_15_2201,Face-ClassificationImage,3.0.4,60.19668049123481,
421,0,842,1,0,0,Real,ideal,0.013,2019_Mar_15_2201,Face-ClassificationImage,3.0.4,60.19668049123481,
421,1,843,0,1,0,Real,ideal,0.013,2019_Mar_15_2201,Face-ClassificationImage,3.0.4,60.19668049123481,
422,0,844,1,1,0,Real,ideal,0.013,2019_Mar_15_2201,Face-ClassificationImage,3.0.4,60.19668049123481,
422,1,845,0,1,0,Real,ideal,0.013,2019_Mar_15_2201,Face-ClassificationImage,3.0.4,60.19668049123481,
423,0,846,1,1,0,Real,ideal,0.013,2019_Mar_15_2201,Face-ClassificationImage,3.0.4,60.19668049123481,
423,1,847,0,0,0,Real,ideal,0.013,2019_Mar_15_2201,Face-ClassificationImage,3.0.4,60.19668049123481,
424,0,848,1,1,0,Real,ideal,0.013,2019_Mar_15_2201,Face-ClassificationImage,3.0.4,60.19668049123481,
424,1,849,0,0,0,Real,ideal,0.013,2019_Mar_15_2201,Face-ClassificationImage,3.0.4,60.19668049123481,
425,0,850,0,1,0,Real,ideal,0.013,2019_Mar_15_2201,Face-ClassificationImage,3.0.4,60.19668049123481,
425,1,851,1,0,0,Real,ideal,0.013,2019_Mar_15_2201,Face-ClassificationImage,3.0.4,60.19668049123481,
426,0,852,1,1,0,Real,ideal,0.013,2019_Mar_15_2201,Face-ClassificationImage,3.0.4,60.19668049123481,
426,1,853,0,1,0,Real,ideal,0.013,2019_Mar_15_2201,Face-ClassificationImage,3.0.4,60.19668049123481,
427,0,854,0,0,0,Real,ideal,0.013,2019_Mar_15_2201,Face-ClassificationImage,3.0.4,60.19668049123481,
427,1,855,1,0,0,Real,ideal,0.013,2019_Mar_15_2201,Face-ClassificationImage,3.0.4,60.19668049123481,
428,0,856,0,0,0,Real,ideal,0.013,2019_Mar_15_2201,Face-ClassificationImage,3.0.4,60.19668049123481,
428,1,857,1,1,0,Real,ideal,0.013,2019_Mar_15_2201,Face-ClassificationImage,3.0.4,60.19668049123481,
429,0,858,0,1,0,Real,ideal,0.013,2019_Mar_15_2201,Face-ClassificationImage,3.0.4,60.19668049123481,
429,1,859,1,1,0,Real,ideal,0.013,2019_Mar_15_2201,Face-ClassificationImage,3.0.4,60.19668049123481,
430,0,860,0,0,0,Real,ideal,0.013,2019_Mar_15_2201,Face-ClassificationImage,3.0.4,60.19668049123481,
430,1,861,1,0,0,Real,ideal,0.013,2019_Mar_15_2201,Face-ClassificationImage,3.0.4,60.19668049123481,
431,0,862,1,1,0,Real,ideal,0.013,2019_Mar_15_2201,Face-ClassificationImage,3.0.4,60.19668049123481,
431,1,863,0,1,0,Real,ideal,0.013,2019_Mar_15_2201,Face-ClassificationImage,3.0.4,60.19668049123481,
432,0,864,1,1,0,Real,ideal,0.013,2019_Mar_15_2201,Face-ClassificationImage,3.0.4,60.19668049123481,
432,1,865,0,0,0,Real,ideal,0.013,2019_Mar_15_2201,Face-ClassificationImage,3.0.4,60.19668049123481,
433,0,866,0,1,0,Real,ideal,0.013,2019_Mar_15_2201,Face-ClassificationImage,3.0.4,60.19668049123481,
433,1,867,1,1,0,Real,ideal,0.013,2019_Mar_15_2201,Face-ClassificationImage,3.0.4,60.19668049123481,
434,0,868,0,0,0,Real,ideal,0.013,2019_Mar_15_2201,Face-ClassificationImage,3.0.4,60.19668049123481,
434,1,869,1,1,0,Real,ideal,0.013,2019_Mar_15_2201,Face-ClassificationImage,3.0.4,60.19668049123481,
435,0,870,0,1,0,Real,ideal,0.013,2019_Mar_15_2201,Face-ClassificationImage,3.0.4,60.19668049123481,
435,1,871,1,0,0,Real,ideal,0.013,2019_Mar_15_2201,Face-ClassificationImage,3.0.4,60.19668049123481,
436,0,872,0,1,0,Real,ideal,0.013,2019_Mar_15_2201,Face-ClassificationImage,3.0.4,60.19668049123481,
436,1,873,1,1,0,Real,ideal,0.013,2019_Mar_15_2201,Face-ClassificationImage,3.0.4,60.19668049123481,
437,0,874,1,1,0,Real,ideal,0.013,2019_Mar_15_2201,Face-ClassificationImage,3.0.4,60.19668049123481,
437,1,875,0,0,0,Real,ideal,0.013,2019_Mar_15_2201,Face-ClassificationImage,3.0.4,60.19668049123481,
438,0,876,1,1,0,Real,ideal,0.013,2019_Mar_15_2201,Face-ClassificationImage,3.0.4,60.19668049123481,
438,1,877,0,1,0,Real,ideal,0.013,2019_Mar_15_2201,Face-ClassificationImage,3.0.4,60.19668049123481,
439,0,878,1,1,0,Real,ideal,0.013,2019_Mar_15_2201,Face-ClassificationImage,3.0.4,60.19668049123481,
439,1,879,0,0,0,Real,ideal,0.013,2019_Mar_15_2201,Face-ClassificationImage,3.0.4,60.19668049123481,
440,0,880,0,0,0,Real,ideal,0.013,2019_Mar_15_2201,Face-ClassificationImage,3.0.4,60.19668049123481,
440,1,881,1,0,0,Real,ideal,0.013,2019_Mar_15_2201,Face-ClassificationImage,3.0.4,60.19668049123481,
441,0,882,0,1,0,Real,ideal,0.013,2019_Mar_15_2201,Face-ClassificationImage,3.0.4,60.19668049123481,
441,1,883,1,1,0,Real,ideal,0.013,2019_Mar_15_2201,Face-ClassificationImage,3.0.4,60.19668049123481,
442,0,884,0,1,0,Real,ideal,0.013,2019_Mar_15_2201,Face-ClassificationImage,3.0.4,60.19668049123481,
442,1,885,1,1,0,Real,ideal,0.013,2019_Mar_15_2201,Face-ClassificationImage,3.0.4,60.19668049123481,
443,0,886,1,1,0,Real,ideal,0.013,2019_Mar_15_2201,Face-ClassificationImage,3.0.4,60.19668049123481,
443,1,887,0,0,0,Real,ideal,0.013,2019_Mar_15_2201,Face-ClassificationImage,3.0.4,60.19668049123481,
444,0,888,1,0,0,Real,ideal,0.013,2019_Mar_15_2201,Face-ClassificationImage,3.0.4,60.19668049123481,
444,1,889,0,1,0,Real,ideal,0.013,2019_Mar_15_2201,Face-ClassificationImage,3.0.4,60.19668049123481,
445,0,890,0,1,0,Real,ideal,0.013,2019_Mar_15_2201,Face-ClassificationImage,3.0.4,60.19668049123481,
445,1,891,1,1,0,Real,ideal,0.013,2019_Mar_15_2201,Face-ClassificationImage,3.0.4,60.19668049123481,
446,0,892,1,1,0,Real,ideal,0.013,2019_Mar_15_2201,Face-ClassificationImage,3.0.4,60.19668049123481,
446,1,893,0,1,0,Real,ideal,0.013,2019_Mar_15_2201,Face-ClassificationImage,3.0.4,60.19668049123481,
447,0,894,0,0,0,Real,ideal,0.013,2019_Mar_15_2201,Face-ClassificationImage,3.0.4,60.19668049123481,
447,1,895,1,1,0,Real,ideal,0.013,2019_Mar_15_2201,Face-ClassificationImage,3.0.4,60.19668049123481,
448,0,896,1,1,0,Real,ideal,0.013,2019_Mar_15_2201,Face-ClassificationImage,3.0.4,60.19668049123481,
448,1,897,0,0,0,Real,ideal,0.013,2019_Mar_15_2201,Face-ClassificationImage,3.0.4,60.19668049123481,
449,0,898,1,1,0,Real,ideal,0.013,2019_Mar_15_2201,Face-ClassificationImage,3.0.4,60.19668049123481,
449,1,899,0,1,0,Real,ideal,0.013,2019_Mar_15_2201,Face-ClassificationImage,3.0.4,60.19668049123481,
450,0,900,0,1,0,Real,ideal,0.013,2019_Mar_15_2201,Face-ClassificationImage,3.0.4,60.19668049123481,
450,1,901,1,1,0,Real,ideal,0.013,2019_Mar_15_2201,Face-ClassificationImage,3.0.4,60.19668049123481,
451,0,902,0,0,0,Real,ideal,0.013,2019_Mar_15_2201,Face-ClassificationImage,3.0.4,60.19668049123481,
451,1,903,1,1,0,Real,ideal,0.013,2019_Mar_15_2201,Face-ClassificationImage,3.0.4,60.19668049123481,
452,0,904,1,0,0,Real,ideal,0.013,2019_Mar_15_2201,Face-ClassificationImage,3.0.4,60.19668049123481,
452,1,905,0,1,0,Real,ideal,0.013,2019_Mar_15_2201,Face-ClassificationImage,3.0.4,60.19668049123481,
453,0,906,0,0,0,Real,ideal,0.013,2019_Mar_15_2201,Face-ClassificationImage,3.0.4,60.19668049123481,
453,1,907,1,0,0,Real,ideal,0.013,2019_Mar_15_2201,Face-ClassificationImage,3.0.4,60.19668049123481,
454,0,908,0,1,0,Real,ideal,0.013,2019_Mar_15_2201,Face-ClassificationImage,3.0.4,60.19668049123481,
454,1,909,1,1,0,Real,ideal,0.013,2019_Mar_15_2201,Face-ClassificationImage,3.0.4,60.19668049123481,
455,0,910,0,0,0,Real,ideal,0.013,2019_Mar_15_2201,Face-ClassificationImage,3.0.4,60.19668049123481,
455,1,911,1,1,0,Real,ideal,0.013,2019_Mar_15_2201,Face-ClassificationImage,3.0.4,60.19668049123481,
456,0,912,1,0,0,Real,ideal,0.013,2019_Mar_15_2201,Face-ClassificationImage,3.0.4,60.19668049123481,
456,1,913,0,1,0,Real,ideal,0.013,2019_Mar_15_2201,Face-ClassificationImage,3.0.4,60.19668049123481,
457,0,914,1,0,0,Real,ideal,0.013,2019_Mar_15_2201,Face-ClassificationImage,3.0.4,60.19668049123481,
457,1,915,0,1,0,Real,ideal,0.013,2019_Mar_15_2201,Face-ClassificationImage,3.0.4,60.19668049123481,
458,0,916,0,1,0,Real,ideal,0.013,2019_Mar_15_2201,Face-ClassificationImage,3.0.4,60.19668049123481,
458,1,917,1,1,0,Real,ideal,0.013,2019_Mar_15_2201,Face-ClassificationImage,3.0.4,60.19668049123481,
459,0,918,0,1,0,Real,ideal,0.013,2019_Mar_15_2201,Face-ClassificationImage,3.0.4,60.19668049123481,
459,1,919,1,0,0,Real,ideal,0.013,2019_Mar_15_2201,Face-ClassificationImage,3.0.4,60.19668049123481,
460,0,920,0,1,0,Real,ideal,0.013,2019_Mar_15_2201,Face-ClassificationImage,3.0.4,60.19668049123481,
460,1,921,1,1,0,Real,ideal,0.013,2019_Mar_15_2201,Face-ClassificationImage,3.0.4,60.19668049123481,
461,0,922,1,1,0,Real,ideal,0.013,2019_Mar_15_2201,Face-ClassificationImage,3.0.4,60.19668049123481,
461,1,923,0,1,0,Real,ideal,0.013,2019_Mar_15_2201,Face-ClassificationImage,3.0.4,60.19668049123481,
462,0,924,0,1,0,Real,ideal,0.013,2019_Mar_15_2201,Face-ClassificationImage,3.0.4,60.19668049123481,
462,1,925,1,1,0,Real,ideal,0.013,2019_Mar_15_2201,Face-ClassificationImage,3.0.4,60.19668049123481,
463,0,926,1,1,0,Real,ideal,0.013,2019_Mar_15_2201,Face-ClassificationImage,3.0.4,60.19668049123481,
463,1,927,0,1,0,Real,ideal,0.013,2019_Mar_15_2201,Face-ClassificationImage,3.0.4,60.19668049123481,
464,0,928,1,1,0,Real,ideal,0.013,2019_Mar_15_2201,Face-ClassificationImage,3.0.4,60.19668049123481,
464,1,929,0,1,0,Real,ideal,0.013,2019_Mar_15_2201,Face-ClassificationImage,3.0.4,60.19668049123481,
465,0,930,1,1,0,Real,ideal,0.013,2019_Mar_15_2201,Face-ClassificationImage,3.0.4,60.19668049123481,
465,1,931,0,1,0,Real,ideal,0.013,2019_Mar_15_2201,Face-ClassificationImage,3.0.4,60.19668049123481,
466,0,932,0,1,0,Real,ideal,0.013,2019_Mar_15_2201,Face-ClassificationImage,3.0.4,60.19668049123481,
466,1,933,1,1,0,Real,ideal,0.013,2019_Mar_15_2201,Face-ClassificationImage,3.0.4,60.19668049123481,
467,0,934,0,1,0,Real,ideal,0.013,2019_Mar_15_2201,Face-ClassificationImage,3.0.4,60.19668049123481,
467,1,935,1,1,0,Real,ideal,0.013,2019_Mar_15_2201,Face-ClassificationImage,3.0.4,60.19668049123481,
468,0,936,0,1,0,Real,ideal,0.013,2019_Mar_15_2201,Face-ClassificationImage,3.0.4,60.19668049123481,
468,1,937,1,1,0,Real,ideal,0.013,2019_Mar_15_2201,Face-ClassificationImage,3.0.4,60.19668049123481,
469,0,938,1,1,0,Real,ideal,0.013,2019_Mar_15_2201,Face-ClassificationImage,3.0.4,60.19668049123481,
469,1,939,0,0,0,Real,ideal,0.013,2019_Mar_15_2201,Face-ClassificationImage,3.0.4,60.19668049123481,
470,0,940,1,1,0,Real,ideal,0.013,2019_Mar_15_2201,Face-ClassificationImage,3.0.4,60.19668049123481,
470,1,941,0,1,0,Real,ideal,0.013,2019_Mar_15_2201,Face-ClassificationImage,3.0.4,60.19668049123481,
471,0,942,0,0,0,Real,ideal,0.013,2019_Mar_15_2201,Face-ClassificationImage,3.0.4,60.19668049123481,
471,1,943,1,0,0,Real,ideal,0.013,2019_Mar_15_2201,Face-ClassificationImage,3.0.4,60.19668049123481,
472,0,944,0,0,0,Real,ideal,0.013,2019_Mar_15_2201,Face-ClassificationImage,3.0.4,60.19668049123481,
472,1,945,1,1,0,Real,ideal,0.013,2019_Mar_15_2201,Face-ClassificationImage,3.0.4,60.19668049123481,
473,0,946,0,1,0,Real,ideal,0.013,2019_Mar_15_2201,Face-ClassificationImage,3.0.4,60.19668049123481,
473,1,947,1,1,0,Real,ideal,0.013,2019_Mar_15_2201,Face-ClassificationImage,3.0.4,60.19668049123481,
474,0,948,1,0,0,Real,ideal,0.013,2019_Mar_15_2201,Face-ClassificationImage,3.0.4,60.19668049123481,
474,1,949,0,0,0,Real,ideal,0.013,2019_Mar_15_2201,Face-ClassificationImage,3.0.4,60.19668049123481,
475,0,950,0,0,0,Real,ideal,0.013,2019_Mar_15_2201,Face-ClassificationImage,3.0.4,60.19668049123481,
475,1,951,1,0,0,Real,ideal,0.013,2019_Mar_15_2201,Face-ClassificationImage,3.0.4,60.19668049123481,
476,0,952,1,0,0,Real,ideal,0.013,2019_Mar_15_2201,Face-ClassificationImage,3.0.4,60.19668049123481,
476,1,953,0,0,0,Real,ideal,0.013,2019_Mar_15_2201,Face-ClassificationImage,3.0.4,60.19668049123481,
477,0,954,0,1,0,Real,ideal,0.013,2019_Mar_15_2201,Face-ClassificationImage,3.0.4,60.19668049123481,
477,1,955,1,0,0,Real,ideal,0.013,2019_Mar_15_2201,Face-ClassificationImage,3.0.4,60.19668049123481,
478,0,956,1,1,0,Real,ideal,0.013,2019_Mar_15_2201,Face-ClassificationImage,3.0.4,60.19668049123481,
478,1,957,0,1,0,Real,ideal,0.013,2019_Mar_15_2201,Face-ClassificationImage,3.0.4,60.19668049123481,
479,0,958,0,1,0,Real,ideal,0.013,2019_Mar_15_2201,Face-ClassificationImage,3.0.4,60.19668049123481,
479,1,959,1,1,0,Real,ideal,0.013,2019_Mar_15_2201,Face-ClassificationImage,3.0.4,60.19668049123481,
480,0,960,1,1,0,Real,ideal,0.013,2019_Mar_15_2201,Face-ClassificationImage,3.0.4,60.19668049123481,
480,1,961,0,1,0,Real,ideal,0.013,2019_Mar_15_2201,Face-ClassificationImage,3.0.4,60.19668049123481,
481,0,962,0,0,0,Real,ideal,0.013,2019_Mar_15_2201,Face-ClassificationImage,3.0.4,60.19668049123481,
481,1,963,1,1,0,Real,ideal,0.013,2019_Mar_15_2201,Face-ClassificationImage,3.0.4,60.19668049123481,
482,0,964,1,1,0,Real,ideal,0.013,2019_Mar_15_2201,Face-ClassificationImage,3.0.4,60.19668049123481,
482,1,965,0,1,0,Real,ideal,0.013,2019_Mar_15_2201,Face-ClassificationImage,3.0.4,60.19668049123481,
483,0,966,1,1,0,Real,ideal,0.013,2019_Mar_15_2201,Face-ClassificationImage,3.0.4,60.19668049123481,
483,1,967,0,1,0,Real,ideal,0.013,2019_Mar_15_2201,Face-ClassificationImage,3.0.4,60.19668049123481,
484,0,968,1,0,0,Real,ideal,0.013,2019_Mar_15_2201,Face-ClassificationImage,3.0.4,60.19668049123481,
484,1,969,0,1,0,Real,ideal,0.013,2019_Mar_15_2201,Face-ClassificationImage,3.0.4,60.19668049123481,
485,0,970,0,1,0,Real,ideal,0.013,2019_Mar_15_2201,Face-ClassificationImage,3.0.4,60.19668049123481,
485,1,971,1,0,0,Real,ideal,0.013,2019_Mar_15_2201,Face-ClassificationImage,3.0.4,60.19668049123481,
486,0,972,1,1,0,Real,ideal,0.013,2019_Mar_15_2201,Face-ClassificationImage,3.0.4,60.19668049123481,
486,1,973,0,0,0,Real,ideal,0.013,2019_Mar_15_2201,Face-ClassificationImage,3.0.4,60.19668049123481,
487,0,974,1,0,0,Real,ideal,0.013,2019_Mar_15_2201,Face-ClassificationImage,3.0.4,60.19668049123481,
487,1,975,0,0,0,Real,ideal,0.013,2019_Mar_15_2201,Face-ClassificationImage,3.0.4,60.19668049123481,
488,0,976,0,1,0,Real,ideal,0.013,2019_Mar_15_2201,Face-ClassificationImage,3.0.4,60.19668049123481,
488,1,977,1,1,0,Real,ideal,0.013,2019_Mar_15_2201,Face-ClassificationImage,3.0.4,60.19668049123481,
489,0,978,1,1,0,Real,ideal,0.013,2019_Mar_15_2201,Face-ClassificationImage,3.0.4,60.19668049123481,
489,1,979,0,1,0,Real,ideal,0.013,2019_Mar_15_2201,Face-ClassificationImage,3.0.4,60.19668049123481,
490,0,980,0,1,0,Real,ideal,0.013,2019_Mar_15_2201,Face-ClassificationImage,3.0.4,60.19668049123481,
490,1,981,1,0,0,Real,ideal,0.013,2019_Mar_15_2201,Face-ClassificationImage,3.0.4,60.19668049123481,
491,0,982,0,1,0,Real,ideal,0.013,2019_Mar_15_2201,Face-ClassificationImage,3.0.4,60.19668049123481,
491,1,983,1,1,0,Real,ideal,0.013,2019_Mar_15_2201,Face-ClassificationImage,3.0.4,60.19668049123481,
492,0,984,0,1,0,Real,ideal,0.013,2019_Mar_15_2201,Face-ClassificationImage,3.0.4,60.19668049123481,
492,1,985,1,1,0,Real,ideal,0.013,2019_Mar_15_2201,Face-ClassificationImage,3.0.4,60.19668049123481,
493,0,986,1,1,0,Real,ideal,0.013,2019_Mar_15_2201,Face-ClassificationImage,3.0.4,60.19668049123481,
493,1,987,0,1,0,Real,ideal,0.013,2019_Mar_15_2201,Face-ClassificationImage,3.0.4,60.19668049123481,
494,0,988,0,1,0,Real,ideal,0.013,2019_Mar_15_2201,Face-ClassificationImage,3.0.4,60.19668049123481,
494,1,989,1,1,0,Real,ideal,0.013,2019_Mar_15_2201,Face-ClassificationImage,3.0.4,60.19668049123481,
495,0,990,1,0,0,Real,ideal,0.013,2019_Mar_15_2201,Face-ClassificationImage,3.0.4,60.19668049123481,
495,1,991,0,1,0,Real,ideal,0.013,2019_Mar_15_2201,Face-ClassificationImage,3.0.4,60.19668049123481,
496,0,992,0,1,0,Real,ideal,0.013,2019_Mar_15_2201,Face-ClassificationImage,3.0.4,60.19668049123481,
496,1,993,1,1,0,Real,ideal,0.013,2019_Mar_15_2201,Face-ClassificationImage,3.0.4,60.19668049123481,
497,0,994,0,0,0,Real,ideal,0.013,2019_Mar_15_2201,Face-ClassificationImage,3.0.4,60.19668049123481,
497,1,995,1,0,0,Real,ideal,0.013,2019_Mar_15_2201,Face-ClassificationImage,3.0.4,60.19668049123481,
498,0,996,0,1,0,Real,ideal,0.013,2019_Mar_15_2201,Face-ClassificationImage,3.0.4,60.19668049123481,
498,1,997,1,1,0,Real,ideal,0.013,2019_Mar_15_2201,Face-ClassificationImage,3.0.4,60.19668049123481,
499,0,998,1,1,0,Real,ideal,0.013,2019_Mar_15_2201,Face-ClassificationImage,3.0.4,60.19668049123481,
499,1,999,0,0,0,Real,ideal,0.013,2019_Mar_15_2201,Face-ClassificationImage,3.0.4,60.19668049123481,
500,0,1000,1,1,0,Real,ideal,0.013,2019_Mar_15_2201,Face-ClassificationImage,3.0.4,60.19668049123481,
