.thisTrialN,.stepSize,.intensity,.response,key_resp_2.rt,Face,participant,date,expName,psychopyVersion,frameRate,
0,4,0.5,1,0,Schematic,ideal,2019_Mar_17_1921,Face-Threshold,3.0.4,None,
1,4,0.4983225699347126,1,0,Schematic,ideal,2019_Mar_17_1921,Face-Threshold,3.0.4,None,
2,4,0.44550633527271866,1,0,Schematic,ideal,2019_Mar_17_1921,Face-Threshold,3.0.4,None,
3,4,0.39445686119571033,1,0,Schematic,ideal,2019_Mar_17_1921,Face-Threshold,3.0.4,None,
4,4,0.34814981683798774,1,0,Schematic,ideal,2019_Mar_17_1921,Face-Threshold,3.0.4,None,
5,4,0.3060421945095867,1,0,Schematic,ideal,2019_Mar_17_1921,Face-Threshold,3.0.4,None,
6,4,0.26814921323472907,1,0,Schematic,ideal,2019_Mar_17_1921,Face-Threshold,3.0.4,None,
7,4,0.2339410768867216,1,0,Schematic,ideal,2019_Mar_17_1921,Face-Threshold,3.0.4,None,
8,4,0.20260312889986082,1,0,Schematic,ideal,2019_Mar_17_1921,Face-Threshold,3.0.4,None,
9,4,0.172903911404083,1,0,Schematic,ideal,2019_Mar_17_1921,Face-Threshold,3.0.4,None,
10,4,0.14452210303640406,1,0,Schematic,ideal,2019_Mar_17_1921,Face-Threshold,3.0.4,None,
11,4,0.11724014663125376,1,0,Schematic,ideal,2019_Mar_17_1921,Face-Threshold,3.0.4,None,
12,4,0.09037944510090834,1,0,Schematic,ideal,2019_Mar_17_1921,Face-Threshold,3.0.4,None,
13,4,0.06467782174383485,1,0,Schematic,ideal,2019_Mar_17_1921,Face-Threshold,3.0.4,None,
14,4,0.039957066213195114,1,0,Schematic,ideal,2019_Mar_17_1921,Face-Threshold,3.0.4,None,
15,4,0.0157676385347143,1,0,Schematic,ideal,2019_Mar_17_1921,Face-Threshold,3.0.4,None,
16,4,0,0,0,Schematic,ideal,2019_Mar_17_1921,Face-Threshold,3.0.4,None,
17,4,0.03609680688964256,1,0,Schematic,ideal,2019_Mar_17_1921,Face-Threshold,3.0.4,None,
18,4,0.015544358618723553,1,0,Schematic,ideal,2019_Mar_17_1921,Face-Threshold,3.0.4,None,
19,4,0,0,0,Schematic,ideal,2019_Mar_17_1921,Face-Threshold,3.0.4,None,
20,4,0.03012193898540494,1,0,Schematic,ideal,2019_Mar_17_1921,Face-Threshold,3.0.4,None,
21,4,0.01248031235046998,1,0,Schematic,ideal,2019_Mar_17_1921,Face-Threshold,3.0.4,None,
22,4,0,1,0,Schematic,ideal,2019_Mar_17_1921,Face-Threshold,3.0.4,None,
23,4,0,1,0,Schematic,ideal,2019_Mar_17_1921,Face-Threshold,3.0.4,None,
24,4,0,0,0,Schematic,ideal,2019_Mar_17_1921,Face-Threshold,3.0.4,None,
25,4,0,1,0,Schematic,ideal,2019_Mar_17_1921,Face-Threshold,3.0.4,None,
26,4,0,0,0,Schematic,ideal,2019_Mar_17_1921,Face-Threshold,3.0.4,None,
27,4,0.009314878156439443,1,0,Schematic,ideal,2019_Mar_17_1921,Face-Threshold,3.0.4,None,
28,4,0,1,0,Schematic,ideal,2019_Mar_17_1921,Face-Threshold,3.0.4,None,
29,4,0,0,0,Schematic,ideal,2019_Mar_17_1921,Face-Threshold,3.0.4,None,
30,4,0.007173549105209065,1,0,Schematic,ideal,2019_Mar_17_1921,Face-Threshold,3.0.4,None,
31,4,0,1,0,Schematic,ideal,2019_Mar_17_1921,Face-Threshold,3.0.4,None,
32,4,0,0,0,Schematic,ideal,2019_Mar_17_1921,Face-Threshold,3.0.4,None,
33,4,0.005002949158157022,1,0,Schematic,ideal,2019_Mar_17_1921,Face-Threshold,3.0.4,None,
34,4,0,0,0,Schematic,ideal,2019_Mar_17_1921,Face-Threshold,3.0.4,None,
35,4,0.013509495971304242,1,0,Schematic,ideal,2019_Mar_17_1921,Face-Threshold,3.0.4,None,
36,4,0.0024438198294574054,0,0,Schematic,ideal,2019_Mar_17_1921,Face-Threshold,3.0.4,None,
37,4,0.020987054091253454,1,0,Schematic,ideal,2019_Mar_17_1921,Face-Threshold,3.0.4,None,
38,4,0.009873308736949526,1,0,Schematic,ideal,2019_Mar_17_1921,Face-Threshold,3.0.4,None,
39,4,0,1,0,Schematic,ideal,2019_Mar_17_1921,Face-Threshold,3.0.4,None,
40,4,0,0,0,Schematic,ideal,2019_Mar_17_1921,Face-Threshold,3.0.4,None,
41,4,0.007427638943610759,1,0,Schematic,ideal,2019_Mar_17_1921,Face-Threshold,3.0.4,None,
42,4,0,0,0,Schematic,ideal,2019_Mar_17_1921,Face-Threshold,3.0.4,None,
43,4,0.014108387329388405,1,0,Schematic,ideal,2019_Mar_17_1921,Face-Threshold,3.0.4,None,
44,4,0.004751538706632363,1,0,Schematic,ideal,2019_Mar_17_1921,Face-Threshold,3.0.4,None,
45,4,0,0,0,Schematic,ideal,2019_Mar_17_1921,Face-Threshold,3.0.4,None,
46,4,0.011359966369075991,1,0,Schematic,ideal,2019_Mar_17_1921,Face-Threshold,3.0.4,None,
47,4,0.0025744655668700767,0,0,Schematic,ideal,2019_Mar_17_1921,Face-Threshold,3.0.4,None,
48,4,0.017179677740671195,1,0,Schematic,ideal,2019_Mar_17_1921,Face-Threshold,3.0.4,None,
49,4,0.008186855864659393,1,0,Schematic,ideal,2019_Mar_17_1921,Face-Threshold,3.0.4,None,
50,4,0,1,0,Schematic,ideal,2019_Mar_17_1921,Face-Threshold,3.0.4,None,
51,4,0,1,0,Schematic,ideal,2019_Mar_17_1921,Face-Threshold,3.0.4,None,
52,4,0,1,0,Schematic,ideal,2019_Mar_17_1921,Face-Threshold,3.0.4,None,
53,4,0,1,0,Schematic,ideal,2019_Mar_17_1921,Face-Threshold,3.0.4,None,
54,4,0,1,0,Schematic,ideal,2019_Mar_17_1921,Face-Threshold,3.0.4,None,
55,4,0,1,0,Schematic,ideal,2019_Mar_17_1921,Face-Threshold,3.0.4,None,
56,4,0,0,0,Schematic,ideal,2019_Mar_17_1921,Face-Threshold,3.0.4,None,
57,4,0,0,0,Schematic,ideal,2019_Mar_17_1921,Face-Threshold,3.0.4,None,
58,4,0,1,0,Schematic,ideal,2019_Mar_17_1921,Face-Threshold,3.0.4,None,
59,4,0,0,0,Schematic,ideal,2019_Mar_17_1921,Face-Threshold,3.0.4,None,
60,4,0,1,0,Schematic,ideal,2019_Mar_17_1921,Face-Threshold,3.0.4,None,
61,4,0,1,0,Schematic,ideal,2019_Mar_17_1921,Face-Threshold,3.0.4,None,
62,4,0,1,0,Schematic,ideal,2019_Mar_17_1921,Face-Threshold,3.0.4,None,
63,4,0,0,0,Schematic,ideal,2019_Mar_17_1921,Face-Threshold,3.0.4,None,
64,4,0,1,0,Schematic,ideal,2019_Mar_17_1921,Face-Threshold,3.0.4,None,
65,4,0,1,0,Schematic,ideal,2019_Mar_17_1921,Face-Threshold,3.0.4,None,
66,4,0,1,0,Schematic,ideal,2019_Mar_17_1921,Face-Threshold,3.0.4,None,
67,4,0,0,0,Schematic,ideal,2019_Mar_17_1921,Face-Threshold,3.0.4,None,
68,4,0,0,0,Schematic,ideal,2019_Mar_17_1921,Face-Threshold,3.0.4,None,
69,4,0,1,0,Schematic,ideal,2019_Mar_17_1921,Face-Threshold,3.0.4,None,
70,4,0,1,0,Schematic,ideal,2019_Mar_17_1921,Face-Threshold,3.0.4,None,
71,4,0,0,0,Schematic,ideal,2019_Mar_17_1921,Face-Threshold,3.0.4,None,
72,4,0,0,0,Schematic,ideal,2019_Mar_17_1921,Face-Threshold,3.0.4,None,
73,4,0,0,0,Schematic,ideal,2019_Mar_17_1921,Face-Threshold,3.0.4,None,
74,4,0.005188378094190982,1,0,Schematic,ideal,2019_Mar_17_1921,Face-Threshold,3.0.4,None,
75,4,0,1,0,Schematic,ideal,2019_Mar_17_1921,Face-Threshold,3.0.4,None,
76,4,0,0,0,Schematic,ideal,2019_Mar_17_1921,Face-Threshold,3.0.4,None,
77,4,0.0034191754892217707,1,0,Schematic,ideal,2019_Mar_17_1921,Face-Threshold,3.0.4,None,
78,4,0,0,0,Schematic,ideal,2019_Mar_17_1921,Face-Threshold,3.0.4,None,
79,4,0.007273602677608015,0,0,Schematic,ideal,2019_Mar_17_1921,Face-Threshold,3.0.4,None,
80,4,0.017234333068177288,1,0,Schematic,ideal,2019_Mar_17_1921,Face-Threshold,3.0.4,None,
81,4,0.01124663804221887,1,0,Schematic,ideal,2019_Mar_17_1921,Face-Threshold,3.0.4,None,
82,4,0.005826824786198281,1,0,Schematic,ideal,2019_Mar_17_1921,Face-Threshold,3.0.4,None,
83,4,0.00046405233562063497,1,0,Schematic,ideal,2019_Mar_17_1921,Face-Threshold,3.0.4,None,
84,4,0,0,0,Schematic,ideal,2019_Mar_17_1921,Face-Threshold,3.0.4,None,
85,4,0.0041624888726973786,1,0,Schematic,ideal,2019_Mar_17_1921,Face-Threshold,3.0.4,None,
86,4,0,0,0,Schematic,ideal,2019_Mar_17_1921,Face-Threshold,3.0.4,None,
87,4,0.007606852565539501,1,0,Schematic,ideal,2019_Mar_17_1921,Face-Threshold,3.0.4,None,
88,4,0.002575036827742183,1,0,Schematic,ideal,2019_Mar_17_1921,Face-Threshold,3.0.4,None,
89,4,0,1,0,Schematic,ideal,2019_Mar_17_1921,Face-Threshold,3.0.4,None,
90,4,0,1,0,Schematic,ideal,2019_Mar_17_1921,Face-Threshold,3.0.4,None,
91,4,0,1,0,Schematic,ideal,2019_Mar_17_1921,Face-Threshold,3.0.4,None,
92,4,0,1,0,Schematic,ideal,2019_Mar_17_1921,Face-Threshold,3.0.4,None,
93,4,0,0,0,Schematic,ideal,2019_Mar_17_1921,Face-Threshold,3.0.4,None,
94,4,0,0,0,Schematic,ideal,2019_Mar_17_1921,Face-Threshold,3.0.4,None,
95,4,0,0,0,Schematic,ideal,2019_Mar_17_1921,Face-Threshold,3.0.4,None,
96,4,0.0032915980837453507,1,0,Schematic,ideal,2019_Mar_17_1921,Face-Threshold,3.0.4,None,
97,4,0,0,0,Schematic,ideal,2019_Mar_17_1921,Face-Threshold,3.0.4,None,
98,4,0.00638361010420202,1,0,Schematic,ideal,2019_Mar_17_1921,Face-Threshold,3.0.4,None,
99,4,0.0018494176821310382,1,0,Schematic,ideal,2019_Mar_17_1921,Face-Threshold,3.0.4,None,
100,4,0,0,0,Schematic,ideal,2019_Mar_17_1921,Face-Threshold,3.0.4,None,
101,4,0.004904336490204664,1,0,Schematic,ideal,2019_Mar_17_1921,Face-Threshold,3.0.4,None,
102,4,0.000645264741486351,1,0,Schematic,ideal,2019_Mar_17_1921,Face-Threshold,3.0.4,None,
103,4,0,1,0,Schematic,ideal,2019_Mar_17_1921,Face-Threshold,3.0.4,None,
104,4,0,0,0,Schematic,ideal,2019_Mar_17_1921,Face-Threshold,3.0.4,None,
105,4,0,1,0,Schematic,ideal,2019_Mar_17_1921,Face-Threshold,3.0.4,None,
106,4,0,1,0,Schematic,ideal,2019_Mar_17_1921,Face-Threshold,3.0.4,None,
107,4,0,1,0,Schematic,ideal,2019_Mar_17_1921,Face-Threshold,3.0.4,None,
108,4,0,1,0,Schematic,ideal,2019_Mar_17_1921,Face-Threshold,3.0.4,None,
109,4,0,1,0,Schematic,ideal,2019_Mar_17_1921,Face-Threshold,3.0.4,None,
110,4,0,1,0,Schematic,ideal,2019_Mar_17_1921,Face-Threshold,3.0.4,None,
111,4,0,1,0,Schematic,ideal,2019_Mar_17_1921,Face-Threshold,3.0.4,None,
112,4,0,0,0,Schematic,ideal,2019_Mar_17_1921,Face-Threshold,3.0.4,None,
113,4,0,1,0,Schematic,ideal,2019_Mar_17_1921,Face-Threshold,3.0.4,None,
114,4,0,0,0,Schematic,ideal,2019_Mar_17_1921,Face-Threshold,3.0.4,None,
115,4,0,1,0,Schematic,ideal,2019_Mar_17_1921,Face-Threshold,3.0.4,None,
116,4,0,0,0,Schematic,ideal,2019_Mar_17_1921,Face-Threshold,3.0.4,None,
117,4,0,1,0,Schematic,ideal,2019_Mar_17_1921,Face-Threshold,3.0.4,None,
118,4,0,0,0,Schematic,ideal,2019_Mar_17_1921,Face-Threshold,3.0.4,None,
119,4,0,0,0,Schematic,ideal,2019_Mar_17_1921,Face-Threshold,3.0.4,None,
120,4,0,0,0,Schematic,ideal,2019_Mar_17_1921,Face-Threshold,3.0.4,None,
121,4,0.0008084425960743213,0,0,Schematic,ideal,2019_Mar_17_1921,Face-Threshold,3.0.4,None,
122,4,0.006890568617368031,0,0,Schematic,ideal,2019_Mar_17_1921,Face-Threshold,3.0.4,None,
123,4,0.013471398490515263,1,0,Schematic,ideal,2019_Mar_17_1921,Face-Threshold,3.0.4,None,
124,4,0.009556174006561502,1,0,Schematic,ideal,2019_Mar_17_1921,Face-Threshold,3.0.4,None,
125,4,0.005971087647739459,1,0,Schematic,ideal,2019_Mar_17_1921,Face-Threshold,3.0.4,None,
126,4,0.0023681385583705916,0,0,Schematic,ideal,2019_Mar_17_1921,Face-Threshold,3.0.4,None,
127,4,0.008122725491568894,1,0,Schematic,ideal,2019_Mar_17_1921,Face-Threshold,3.0.4,None,
128,4,0.004610944922270821,0,0,Schematic,ideal,2019_Mar_17_1921,Face-Threshold,3.0.4,None,
129,4,0.01020407188143374,1,0,Schematic,ideal,2019_Mar_17_1921,Face-Threshold,3.0.4,None,
130,4,0.006746201789679773,0,0,Schematic,ideal,2019_Mar_17_1921,Face-Threshold,3.0.4,None,
131,4,0.012881969120287662,1,0,Schematic,ideal,2019_Mar_17_1921,Face-Threshold,3.0.4,None,
132,4,0.009238067858716892,1,0,Schematic,ideal,2019_Mar_17_1921,Face-Threshold,3.0.4,None,
133,4,0.005877475967210055,1,0,Schematic,ideal,2019_Mar_17_1921,Face-Threshold,3.0.4,None,
134,4,0.002500371179912586,1,0,Schematic,ideal,2019_Mar_17_1921,Face-Threshold,3.0.4,None,
135,4,0,0,0,Schematic,ideal,2019_Mar_17_1921,Face-Threshold,3.0.4,None,
136,4,0.004731083146862658,1,0,Schematic,ideal,2019_Mar_17_1921,Face-Threshold,3.0.4,None,
137,4,0.0015427306739166369,0,0,Schematic,ideal,2019_Mar_17_1921,Face-Threshold,3.0.4,None,
138,4,0.006864052354821182,1,0,Schematic,ideal,2019_Mar_17_1921,Face-Threshold,3.0.4,None,
139,4,0.0036226104166996453,1,0,Schematic,ideal,2019_Mar_17_1921,Face-Threshold,3.0.4,None,
140,4,0.0004792936495653377,1,0,Schematic,ideal,2019_Mar_17_1921,Face-Threshold,3.0.4,None,
141,4,0,0,0,Schematic,ideal,2019_Mar_17_1921,Face-Threshold,3.0.4,None,
142,4,0.0026804030339683815,0,0,Schematic,ideal,2019_Mar_17_1921,Face-Threshold,3.0.4,None,
143,4,0.007769576199075423,1,0,Schematic,ideal,2019_Mar_17_1921,Face-Threshold,3.0.4,None,
144,4,0.0046510960923785705,1,0,Schematic,ideal,2019_Mar_17_1921,Face-Threshold,3.0.4,None,
145,4,0.0016365786296682616,1,0,Schematic,ideal,2019_Mar_17_1921,Face-Threshold,3.0.4,None,
146,4,0,0,0,Schematic,ideal,2019_Mar_17_1921,Face-Threshold,3.0.4,None,
147,4,0.0037242458077113016,1,0,Schematic,ideal,2019_Mar_17_1921,Face-Threshold,3.0.4,None,
148,4,0.0007493514623853059,1,0,Schematic,ideal,2019_Mar_17_1921,Face-Threshold,3.0.4,None,
149,4,0,1,0,Schematic,ideal,2019_Mar_17_1921,Face-Threshold,3.0.4,None,
150,4,0,1,0,Schematic,ideal,2019_Mar_17_1921,Face-Threshold,3.0.4,None,
151,4,0,0,0,Schematic,ideal,2019_Mar_17_1921,Face-Threshold,3.0.4,None,
152,4,0,0,0,Schematic,ideal,2019_Mar_17_1921,Face-Threshold,3.0.4,None,
153,4,0.001949081716387413,1,0,Schematic,ideal,2019_Mar_17_1921,Face-Threshold,3.0.4,None,
154,4,0,0,0,Schematic,ideal,2019_Mar_17_1921,Face-Threshold,3.0.4,None,
155,4,0.003920923980058444,1,0,Schematic,ideal,2019_Mar_17_1921,Face-Threshold,3.0.4,None,
156,4,0.0010971935433311542,0,0,Schematic,ideal,2019_Mar_17_1921,Face-Threshold,3.0.4,None,
157,4,0.005812925875706032,1,0,Schematic,ideal,2019_Mar_17_1921,Face-Threshold,3.0.4,None,
158,4,0.0029391392431429297,1,0,Schematic,ideal,2019_Mar_17_1921,Face-Threshold,3.0.4,None,
159,4,0.00014820517662977872,0,0,Schematic,ideal,2019_Mar_17_1921,Face-Threshold,3.0.4,None,
160,4,0.004820071522068925,1,0,Schematic,ideal,2019_Mar_17_1921,Face-Threshold,3.0.4,None,
161,4,0.0021009097551176747,1,0,Schematic,ideal,2019_Mar_17_1921,Face-Threshold,3.0.4,None,
162,4,0,0,0,Schematic,ideal,2019_Mar_17_1921,Face-Threshold,3.0.4,None,
163,4,0.003970810365951316,0,0,Schematic,ideal,2019_Mar_17_1921,Face-Threshold,3.0.4,None,
164,4,0.008378014980760184,1,0,Schematic,ideal,2019_Mar_17_1921,Face-Threshold,3.0.4,None,
165,4,0.005654475593348474,0,0,Schematic,ideal,2019_Mar_17_1921,Face-Threshold,3.0.4,None,
166,4,0.010351578224212787,1,0,Schematic,ideal,2019_Mar_17_1921,Face-Threshold,3.0.4,None,
167,4,0.007634927942116454,1,0,Schematic,ideal,2019_Mar_17_1921,Face-Threshold,3.0.4,None,
168,4,0.0049584308090407925,1,0,Schematic,ideal,2019_Mar_17_1921,Face-Threshold,3.0.4,None,
169,4,0.0023749650972269554,0,0,Schematic,ideal,2019_Mar_17_1921,Face-Threshold,3.0.4,None,
170,4,0.006674321558874208,1,0,Schematic,ideal,2019_Mar_17_1921,Face-Threshold,3.0.4,None,
171,4,0.004035432450121834,1,0,Schematic,ideal,2019_Mar_17_1921,Face-Threshold,3.0.4,None,
172,4,0.0014814021667099442,1,0,Schematic,ideal,2019_Mar_17_1921,Face-Threshold,3.0.4,None,
173,4,0,1,0,Schematic,ideal,2019_Mar_17_1921,Face-Threshold,3.0.4,None,
174,4,0,0,0,Schematic,ideal,2019_Mar_17_1921,Face-Threshold,3.0.4,None,
175,4,0.0007169549475167791,1,0,Schematic,ideal,2019_Mar_17_1921,Face-Threshold,3.0.4,None,
176,4,0,1,0,Schematic,ideal,2019_Mar_17_1921,Face-Threshold,3.0.4,None,
177,4,0,0,0,Schematic,ideal,2019_Mar_17_1921,Face-Threshold,3.0.4,None,
178,4,0,0,0,Schematic,ideal,2019_Mar_17_1921,Face-Threshold,3.0.4,None,
179,4,0.004160249101057389,1,0,Schematic,ideal,2019_Mar_17_1921,Face-Threshold,3.0.4,None,
180,4,0.0017186671509233364,0,0,Schematic,ideal,2019_Mar_17_1921,Face-Threshold,3.0.4,None,
181,4,0.005788185105743859,1,0,Schematic,ideal,2019_Mar_17_1921,Face-Threshold,3.0.4,None,
182,4,0.0032955798984603546,1,0,Schematic,ideal,2019_Mar_17_1921,Face-Threshold,3.0.4,None,
183,4,0.0008782110168418233,0,0,Schematic,ideal,2019_Mar_17_1921,Face-Threshold,3.0.4,None,
184,4,0.004915915015771544,0,0,Schematic,ideal,2019_Mar_17_1921,Face-Threshold,3.0.4,None,
185,4,0.008791119165413697,1,0,Schematic,ideal,2019_Mar_17_1921,Face-Threshold,3.0.4,None,
186,4,0.006381245146684533,1,0,Schematic,ideal,2019_Mar_17_1921,Face-Threshold,3.0.4,None,
187,4,0.003965303218725846,1,0,Schematic,ideal,2019_Mar_17_1921,Face-Threshold,3.0.4,None,
188,4,0.0016270285284364916,1,0,Schematic,ideal,2019_Mar_17_1921,Face-Threshold,3.0.4,None,
189,4,0,0,0,Schematic,ideal,2019_Mar_17_1921,Face-Threshold,3.0.4,None,
190,4,0.003235867514190971,1,0,Schematic,ideal,2019_Mar_17_1921,Face-Threshold,3.0.4,None,
191,4,0.000919262979216684,0,0,Schematic,ideal,2019_Mar_17_1921,Face-Threshold,3.0.4,None,
192,4,0.004787944065268945,0,0,Schematic,ideal,2019_Mar_17_1921,Face-Threshold,3.0.4,None,
193,4,0.00850372626860868,1,0,Schematic,ideal,2019_Mar_17_1921,Face-Threshold,3.0.4,None,
194,4,0.006193034096804162,1,0,Schematic,ideal,2019_Mar_17_1921,Face-Threshold,3.0.4,None,
195,4,0.0038754200928794447,1,0,Schematic,ideal,2019_Mar_17_1921,Face-Threshold,3.0.4,None,
196,4,0.0016318790705340258,1,0,Schematic,ideal,2019_Mar_17_1921,Face-Threshold,3.0.4,None,
197,4,0,0,0,Schematic,ideal,2019_Mar_17_1921,Face-Threshold,3.0.4,None,
198,4,0.003174166919859167,0,0,Schematic,ideal,2019_Mar_17_1921,Face-Threshold,3.0.4,None,
199,4,0.0068221085622914845,1,0,Schematic,ideal,2019_Mar_17_1921,Face-Threshold,3.0.4,None,
200,4,0.004569784037851854,1,0,Schematic,ideal,2019_Mar_17_1921,Face-Threshold,3.0.4,None,
201,4,0.0023940468293116024,0,0,Schematic,ideal,2019_Mar_17_1921,Face-Threshold,3.0.4,None,
202,4,0.006013375148057998,1,0,Schematic,ideal,2019_Mar_17_1921,Face-Threshold,3.0.4,None,
203,4,0.003786368363169812,1,0,Schematic,ideal,2019_Mar_17_1921,Face-Threshold,3.0.4,None,
204,4,0.0016301020790278065,1,0,Schematic,ideal,2019_Mar_17_1921,Face-Threshold,3.0.4,None,
205,4,0,0,0,Schematic,ideal,2019_Mar_17_1921,Face-Threshold,3.0.4,None,
206,4,0.003111277819258962,0,0,Schematic,ideal,2019_Mar_17_1921,Face-Threshold,3.0.4,None,
207,4,0.006619153829708013,1,0,Schematic,ideal,2019_Mar_17_1921,Face-Threshold,3.0.4,None,
208,4,0.004452888423203349,0,0,Schematic,ideal,2019_Mar_17_1921,Face-Threshold,3.0.4,None,
209,4,0.00788631234812448,0,0,Schematic,ideal,2019_Mar_17_1921,Face-Threshold,3.0.4,None,
210,4,0.011702350763053704,1,0,Schematic,ideal,2019_Mar_17_1921,Face-Threshold,3.0.4,None,
211,4,0.009400601255322438,1,0,Schematic,ideal,2019_Mar_17_1921,Face-Threshold,3.0.4,None,
212,4,0.0072951765524771894,1,0,Schematic,ideal,2019_Mar_17_1921,Face-Threshold,3.0.4,None,
213,4,0.005190292172037925,1,0,Schematic,ideal,2019_Mar_17_1921,Face-Threshold,3.0.4,None,
214,4,0.0030732690054275924,0,0,Schematic,ideal,2019_Mar_17_1921,Face-Threshold,3.0.4,None,
215,4,0.006442331452572392,1,0,Schematic,ideal,2019_Mar_17_1921,Face-Threshold,3.0.4,None,
216,4,0.004361202199233749,0,0,Schematic,ideal,2019_Mar_17_1921,Face-Threshold,3.0.4,None,
217,4,0.00766045027999851,1,0,Schematic,ideal,2019_Mar_17_1921,Face-Threshold,3.0.4,None,
218,4,0.005609890290535824,1,0,Schematic,ideal,2019_Mar_17_1921,Face-Threshold,3.0.4,None,
219,4,0.003549987450467751,1,0,Schematic,ideal,2019_Mar_17_1921,Face-Threshold,3.0.4,None,
220,4,0.0015542937432950765,1,0,Schematic,ideal,2019_Mar_17_1921,Face-Threshold,3.0.4,None,
221,4,0,0,0,Schematic,ideal,2019_Mar_17_1921,Face-Threshold,3.0.4,None,
222,4,0.0029242165519201557,1,0,Schematic,ideal,2019_Mar_17_1921,Face-Threshold,3.0.4,None,
223,4,0.0009428130034516702,1,0,Schematic,ideal,2019_Mar_17_1921,Face-Threshold,3.0.4,None,
224,4,0,1,0,Schematic,ideal,2019_Mar_17_1921,Face-Threshold,3.0.4,None,
225,4,0,0,0,Schematic,ideal,2019_Mar_17_1921,Face-Threshold,3.0.4,None,
226,4,0.00034150268791943716,0,0,Schematic,ideal,2019_Mar_17_1921,Face-Threshold,3.0.4,None,
227,4,0.0036327428572210385,0,0,Schematic,ideal,2019_Mar_17_1921,Face-Threshold,3.0.4,None,
228,4,0.006792363001557833,1,0,Schematic,ideal,2019_Mar_17_1921,Face-Threshold,3.0.4,None,
229,4,0.0048342242841430405,1,0,Schematic,ideal,2019_Mar_17_1921,Face-Threshold,3.0.4,None,
230,4,0.002944512314191572,0,0,Schematic,ideal,2019_Mar_17_1921,Face-Threshold,3.0.4,None,
231,4,0.0060828998490427555,1,0,Schematic,ideal,2019_Mar_17_1921,Face-Threshold,3.0.4,None,
232,4,0.004143890225026758,1,0,Schematic,ideal,2019_Mar_17_1921,Face-Threshold,3.0.4,None,
233,4,0.00226877358050509,0,0,Schematic,ideal,2019_Mar_17_1921,Face-Threshold,3.0.4,None,
234,4,0.005388408699628755,1,0,Schematic,ideal,2019_Mar_17_1921,Face-Threshold,3.0.4,None,
235,4,0.003466749942240499,0,0,Schematic,ideal,2019_Mar_17_1921,Face-Threshold,3.0.4,None,
236,4,0.006521043125711112,1,0,Schematic,ideal,2019_Mar_17_1921,Face-Threshold,3.0.4,None,
237,4,0.004628956720418742,0,0,Schematic,ideal,2019_Mar_17_1921,Face-Threshold,3.0.4,None,
238,4,0.007625774772025085,1,0,Schematic,ideal,2019_Mar_17_1921,Face-Threshold,3.0.4,None,
239,4,0.00575894263280341,1,0,Schematic,ideal,2019_Mar_17_1921,Face-Threshold,3.0.4,None,
240,4,0.003884513901292741,1,0,Schematic,ideal,2019_Mar_17_1921,Face-Threshold,3.0.4,None,
241,4,0.002070497811422989,0,0,Schematic,ideal,2019_Mar_17_1921,Face-Threshold,3.0.4,None,
242,4,0.0050899294796625805,1,0,Schematic,ideal,2019_Mar_17_1921,Face-Threshold,3.0.4,None,
243,4,0.003231045119797049,0,0,Schematic,ideal,2019_Mar_17_1921,Face-Threshold,3.0.4,None,
244,4,0.006187548039621793,1,0,Schematic,ideal,2019_Mar_17_1921,Face-Threshold,3.0.4,None,
245,4,0.0043574301998008935,1,0,Schematic,ideal,2019_Mar_17_1921,Face-Threshold,3.0.4,None,
246,4,0.002588842327897245,0,0,Schematic,ideal,2019_Mar_17_1921,Face-Threshold,3.0.4,None,
247,4,0.0055286008979533174,1,0,Schematic,ideal,2019_Mar_17_1921,Face-Threshold,3.0.4,None,
248,4,0.0037140569260263323,1,0,Schematic,ideal,2019_Mar_17_1921,Face-Threshold,3.0.4,None,
249,4,0.0019571531450004453,1,0,Schematic,ideal,2019_Mar_17_1921,Face-Threshold,3.0.4,None,
250,4,0.00017382836163060134,0,0,Schematic,ideal,2019_Mar_17_1921,Face-Threshold,3.0.4,None,
251,4,0.0031564590444435048,0,0,Schematic,ideal,2019_Mar_17_1921,Face-Threshold,3.0.4,None,
252,4,0.006020758559705741,0,0,Schematic,ideal,2019_Mar_17_1921,Face-Threshold,3.0.4,None,
253,4,0.009039324036144325,1,0,Schematic,ideal,2019_Mar_17_1921,Face-Threshold,3.0.4,None,
254,4,0.0072915949413737136,0,0,Schematic,ideal,2019_Mar_17_1921,Face-Threshold,3.0.4,None,
255,4,0.010302442050617255,1,0,Schematic,ideal,2019_Mar_17_1921,Face-Threshold,3.0.4,None,
256,4,0.00853279015411712,1,0,Schematic,ideal,2019_Mar_17_1921,Face-Threshold,3.0.4,None,
257,4,0.006806499507261532,1,0,Schematic,ideal,2019_Mar_17_1921,Face-Threshold,3.0.4,None,
258,4,0.005078470060154883,0,0,Schematic,ideal,2019_Mar_17_1921,Face-Threshold,3.0.4,None,
259,4,0.00803811379038094,1,0,Schematic,ideal,2019_Mar_17_1921,Face-Threshold,3.0.4,None,
260,4,0.00633209203037105,1,0,Schematic,ideal,2019_Mar_17_1921,Face-Threshold,3.0.4,None,
261,4,0.004622019275312528,1,0,Schematic,ideal,2019_Mar_17_1921,Face-Threshold,3.0.4,None,
262,4,0.0029708551522210636,0,0,Schematic,ideal,2019_Mar_17_1921,Face-Threshold,3.0.4,None,
263,4,0.005712478933157905,1,0,Schematic,ideal,2019_Mar_17_1921,Face-Threshold,3.0.4,None,
264,4,0.0040161836740273404,1,0,Schematic,ideal,2019_Mar_17_1921,Face-Threshold,3.0.4,None,
265,4,0.0023753444710200022,1,0,Schematic,ideal,2019_Mar_17_1921,Face-Threshold,3.0.4,None,
266,4,0.0007117555797533925,1,0,Schematic,ideal,2019_Mar_17_1921,Face-Threshold,3.0.4,None,
267,4,0,0,0,Schematic,ideal,2019_Mar_17_1921,Face-Threshold,3.0.4,None,
268,4,0.00185874765776467,0,0,Schematic,ideal,2019_Mar_17_1921,Face-Threshold,3.0.4,None,
269,4,0.004575448378744851,1,0,Schematic,ideal,2019_Mar_17_1921,Face-Threshold,3.0.4,None,
270,4,0.0029721678307296773,1,0,Schematic,ideal,2019_Mar_17_1921,Face-Threshold,3.0.4,None,
271,4,0.0013492490363835041,0,0,Schematic,ideal,2019_Mar_17_1921,Face-Threshold,3.0.4,None,
272,4,0.004055293104044566,1,0,Schematic,ideal,2019_Mar_17_1921,Face-Threshold,3.0.4,None,
273,4,0.0024617009779867027,0,0,Schematic,ideal,2019_Mar_17_1921,Face-Threshold,3.0.4,None,
274,4,0.005111163572741606,1,0,Schematic,ideal,2019_Mar_17_1921,Face-Threshold,3.0.4,None,
275,4,0.0034751547790547455,1,0,Schematic,ideal,2019_Mar_17_1921,Face-Threshold,3.0.4,None,
276,4,0.0018901285427233017,1,0,Schematic,ideal,2019_Mar_17_1921,Face-Threshold,3.0.4,None,
277,4,0.00028116539848288546,0,0,Schematic,ideal,2019_Mar_17_1921,Face-Threshold,3.0.4,None,
278,4,0.0029711330737294817,0,0,Schematic,ideal,2019_Mar_17_1921,Face-Threshold,3.0.4,None,
279,4,0.00555809281951003,1,0,Schematic,ideal,2019_Mar_17_1921,Face-Threshold,3.0.4,None,
280,4,0.003956640846087711,1,0,Schematic,ideal,2019_Mar_17_1921,Face-Threshold,3.0.4,None,
281,4,0.002407352781429062,1,0,Schematic,ideal,2019_Mar_17_1921,Face-Threshold,3.0.4,None,
282,4,0.0008368180058955788,0,0,Schematic,ideal,2019_Mar_17_1921,Face-Threshold,3.0.4,None,
283,4,0.003458821818180191,1,0,Schematic,ideal,2019_Mar_17_1921,Face-Threshold,3.0.4,None,
284,4,0.0019176014854260237,1,0,Schematic,ideal,2019_Mar_17_1921,Face-Threshold,3.0.4,None,
285,4,0.0003532661232641954,1,0,Schematic,ideal,2019_Mar_17_1921,Face-Threshold,3.0.4,None,
286,4,0,0,0,Schematic,ideal,2019_Mar_17_1921,Face-Threshold,3.0.4,None,
287,4,0.001434119353979857,0,0,Schematic,ideal,2019_Mar_17_1921,Face-Threshold,3.0.4,None,
288,4,0.003991088738573956,0,0,Schematic,ideal,2019_Mar_17_1921,Face-Threshold,3.0.4,None,
289,4,0.00646315643307277,1,0,Schematic,ideal,2019_Mar_17_1921,Face-Threshold,3.0.4,None,
290,4,0.004925023134553952,1,0,Schematic,ideal,2019_Mar_17_1921,Face-Threshold,3.0.4,None,
291,4,0.003441395416468873,1,0,Schematic,ideal,2019_Mar_17_1921,Face-Threshold,3.0.4,None,
292,4,0.0019415935393785055,0,0,Schematic,ideal,2019_Mar_17_1921,Face-Threshold,3.0.4,None,
293,4,0.004438331607386714,0,0,Schematic,ideal,2019_Mar_17_1921,Face-Threshold,3.0.4,None,
294,4,0.006857890865487215,1,0,Schematic,ideal,2019_Mar_17_1921,Face-Threshold,3.0.4,None,
295,4,0.005349019292430812,1,0,Schematic,ideal,2019_Mar_17_1921,Face-Threshold,3.0.4,None,
296,4,0.0038323828730091325,1,0,Schematic,ideal,2019_Mar_17_1921,Face-Threshold,3.0.4,None,
297,4,0.002364671607279989,0,0,Schematic,ideal,2019_Mar_17_1921,Face-Threshold,3.0.4,None,
298,4,0.004805253036854029,1,0,Schematic,ideal,2019_Mar_17_1921,Face-Threshold,3.0.4,None,
299,4,0.0033604268591788666,1,0,Schematic,ideal,2019_Mar_17_1921,Face-Threshold,3.0.4,None,
300,4,0.0018995743468178117,1,0,Schematic,ideal,2019_Mar_17_1921,Face-Threshold,3.0.4,None,
301,4,0.0004168284659070154,1,0,Schematic,ideal,2019_Mar_17_1921,Face-Threshold,3.0.4,None,
302,4,0,0,0,Schematic,ideal,2019_Mar_17_1921,Face-Threshold,3.0.4,None,
303,4,0.0014400052152739318,0,0,Schematic,ideal,2019_Mar_17_1921,Face-Threshold,3.0.4,None,
304,4,0.003864694924976708,1,0,Schematic,ideal,2019_Mar_17_1921,Face-Threshold,3.0.4,None,
305,4,0.0024348603316936557,1,0,Schematic,ideal,2019_Mar_17_1921,Face-Threshold,3.0.4,None,
306,4,0.0009856485060243392,1,0,Schematic,ideal,2019_Mar_17_1921,Face-Threshold,3.0.4,None,
307,4,0,1,0,Schematic,ideal,2019_Mar_17_1921,Face-Threshold,3.0.4,None,
308,4,0,0,0,Schematic,ideal,2019_Mar_17_1921,Face-Threshold,3.0.4,None,
309,4,0.0005362026875954662,1,0,Schematic,ideal,2019_Mar_17_1921,Face-Threshold,3.0.4,None,
310,4,0,1,0,Schematic,ideal,2019_Mar_17_1921,Face-Threshold,3.0.4,None,
311,4,0,0,0,Schematic,ideal,2019_Mar_17_1921,Face-Threshold,3.0.4,None,
312,4,9.137954476501342e-05,1,0,Schematic,ideal,2019_Mar_17_1921,Face-Threshold,3.0.4,None,
313,4,0,1,0,Schematic,ideal,2019_Mar_17_1921,Face-Threshold,3.0.4,None,
314,4,0,1,0,Schematic,ideal,2019_Mar_17_1921,Face-Threshold,3.0.4,None,
315,4,0,1,0,Schematic,ideal,2019_Mar_17_1921,Face-Threshold,3.0.4,None,
316,4,0,0,0,Schematic,ideal,2019_Mar_17_1921,Face-Threshold,3.0.4,None,
317,4,0,1,0,Schematic,ideal,2019_Mar_17_1921,Face-Threshold,3.0.4,None,
318,4,0,0,0,Schematic,ideal,2019_Mar_17_1921,Face-Threshold,3.0.4,None,
319,4,0,1,0,Schematic,ideal,2019_Mar_17_1921,Face-Threshold,3.0.4,None,
320,4,0,0,0,Schematic,ideal,2019_Mar_17_1921,Face-Threshold,3.0.4,None,
321,4,0,0,0,Schematic,ideal,2019_Mar_17_1921,Face-Threshold,3.0.4,None,
322,4,0.0011827927123502224,0,0,Schematic,ideal,2019_Mar_17_1921,Face-Threshold,3.0.4,None,
323,4,0.003480265248583969,1,0,Schematic,ideal,2019_Mar_17_1921,Face-Threshold,3.0.4,None,
324,4,0.0021263041001510774,1,0,Schematic,ideal,2019_Mar_17_1921,Face-Threshold,3.0.4,None,
325,4,0.0007529765104944963,1,0,Schematic,ideal,2019_Mar_17_1921,Face-Threshold,3.0.4,None,
326,4,0,1,0,Schematic,ideal,2019_Mar_17_1921,Face-Threshold,3.0.4,None,
327,4,0,1,0,Schematic,ideal,2019_Mar_17_1921,Face-Threshold,3.0.4,None,
328,4,0,0,0,Schematic,ideal,2019_Mar_17_1921,Face-Threshold,3.0.4,None,
329,4,0,1,0,Schematic,ideal,2019_Mar_17_1921,Face-Threshold,3.0.4,None,
330,4,0,0,0,Schematic,ideal,2019_Mar_17_1921,Face-Threshold,3.0.4,None,
331,4,0,1,0,Schematic,ideal,2019_Mar_17_1921,Face-Threshold,3.0.4,None,
332,4,0,0,0,Schematic,ideal,2019_Mar_17_1921,Face-Threshold,3.0.4,None,
333,4,0.0008515536046327377,1,0,Schematic,ideal,2019_Mar_17_1921,Face-Threshold,3.0.4,None,
334,4,0,1,0,Schematic,ideal,2019_Mar_17_1921,Face-Threshold,3.0.4,None,
335,4,0,0,0,Schematic,ideal,2019_Mar_17_1921,Face-Threshold,3.0.4,None,
336,4,0.0004349154450886683,0,0,Schematic,ideal,2019_Mar_17_1921,Face-Threshold,3.0.4,None,
337,4,0.002668743396915252,1,0,Schematic,ideal,2019_Mar_17_1921,Face-Threshold,3.0.4,None,
338,4,0.00135606077224526,1,0,Schematic,ideal,2019_Mar_17_1921,Face-Threshold,3.0.4,None,
339,4,2.201640991544851e-05,1,0,Schematic,ideal,2019_Mar_17_1921,Face-Threshold,3.0.4,None,
340,4,0,1,0,Schematic,ideal,2019_Mar_17_1921,Face-Threshold,3.0.4,None,
341,4,0,1,0,Schematic,ideal,2019_Mar_17_1921,Face-Threshold,3.0.4,None,
342,4,0,1,0,Schematic,ideal,2019_Mar_17_1921,Face-Threshold,3.0.4,None,
343,4,0,0,0,Schematic,ideal,2019_Mar_17_1921,Face-Threshold,3.0.4,None,
344,4,0,1,0,Schematic,ideal,2019_Mar_17_1921,Face-Threshold,3.0.4,None,
345,4,0,0,0,Schematic,ideal,2019_Mar_17_1921,Face-Threshold,3.0.4,None,
346,4,0,1,0,Schematic,ideal,2019_Mar_17_1921,Face-Threshold,3.0.4,None,
347,4,0,1,0,Schematic,ideal,2019_Mar_17_1921,Face-Threshold,3.0.4,None,
348,4,0,1,0,Schematic,ideal,2019_Mar_17_1921,Face-Threshold,3.0.4,None,
349,4,0,1,0,Schematic,ideal,2019_Mar_17_1921,Face-Threshold,3.0.4,None,
350,4,0,0,0,Schematic,ideal,2019_Mar_17_1921,Face-Threshold,3.0.4,None,
351,4,0,1,0,Schematic,ideal,2019_Mar_17_1921,Face-Threshold,3.0.4,None,
352,4,0,1,0,Schematic,ideal,2019_Mar_17_1921,Face-Threshold,3.0.4,None,
353,4,0,1,0,Schematic,ideal,2019_Mar_17_1921,Face-Threshold,3.0.4,None,
354,4,0,0,0,Schematic,ideal,2019_Mar_17_1921,Face-Threshold,3.0.4,None,
355,4,0,0,0,Schematic,ideal,2019_Mar_17_1921,Face-Threshold,3.0.4,None,
356,4,0,1,0,Schematic,ideal,2019_Mar_17_1921,Face-Threshold,3.0.4,None,
357,4,0,0,0,Schematic,ideal,2019_Mar_17_1921,Face-Threshold,3.0.4,None,
358,4,0,1,0,Schematic,ideal,2019_Mar_17_1921,Face-Threshold,3.0.4,None,
359,4,0,1,0,Schematic,ideal,2019_Mar_17_1921,Face-Threshold,3.0.4,None,
360,4,0,0,0,Schematic,ideal,2019_Mar_17_1921,Face-Threshold,3.0.4,None,
361,4,0,0,0,Schematic,ideal,2019_Mar_17_1921,Face-Threshold,3.0.4,None,
362,4,0,1,0,Schematic,ideal,2019_Mar_17_1921,Face-Threshold,3.0.4,None,
363,4,0,0,0,Schematic,ideal,2019_Mar_17_1921,Face-Threshold,3.0.4,None,
364,4,0,1,0,Schematic,ideal,2019_Mar_17_1921,Face-Threshold,3.0.4,None,
365,4,0,1,0,Schematic,ideal,2019_Mar_17_1921,Face-Threshold,3.0.4,None,
366,4,0,1,0,Schematic,ideal,2019_Mar_17_1921,Face-Threshold,3.0.4,None,
367,4,0,1,0,Schematic,ideal,2019_Mar_17_1921,Face-Threshold,3.0.4,None,
368,4,0,1,0,Schematic,ideal,2019_Mar_17_1921,Face-Threshold,3.0.4,None,
369,4,0,0,0,Schematic,ideal,2019_Mar_17_1921,Face-Threshold,3.0.4,None,
370,4,0,1,0,Schematic,ideal,2019_Mar_17_1921,Face-Threshold,3.0.4,None,
371,4,0,0,0,Schematic,ideal,2019_Mar_17_1921,Face-Threshold,3.0.4,None,
372,4,0,0,0,Schematic,ideal,2019_Mar_17_1921,Face-Threshold,3.0.4,None,
373,4,0,1,0,Schematic,ideal,2019_Mar_17_1921,Face-Threshold,3.0.4,None,
374,4,0,0,0,Schematic,ideal,2019_Mar_17_1921,Face-Threshold,3.0.4,None,
375,4,0,1,0,Schematic,ideal,2019_Mar_17_1921,Face-Threshold,3.0.4,None,
376,4,0,0,0,Schematic,ideal,2019_Mar_17_1921,Face-Threshold,3.0.4,None,
377,4,0,1,0,Schematic,ideal,2019_Mar_17_1921,Face-Threshold,3.0.4,None,
378,4,0,0,0,Schematic,ideal,2019_Mar_17_1921,Face-Threshold,3.0.4,None,
379,4,0.0005146348244288723,0,0,Schematic,ideal,2019_Mar_17_1921,Face-Threshold,3.0.4,None,
380,4,0.0025062319103231756,0,0,Schematic,ideal,2019_Mar_17_1921,Face-Threshold,3.0.4,None,
381,4,0.004428265537973208,0,0,Schematic,ideal,2019_Mar_17_1921,Face-Threshold,3.0.4,None,
382,4,0.006299248009216496,1,0,Schematic,ideal,2019_Mar_17_1921,Face-Threshold,3.0.4,None,
383,4,0.005130208961654836,1,0,Schematic,ideal,2019_Mar_17_1921,Face-Threshold,3.0.4,None,
384,4,0.003954591620197345,0,0,Schematic,ideal,2019_Mar_17_1921,Face-Threshold,3.0.4,None,
385,4,0.00581957260951016,1,0,Schematic,ideal,2019_Mar_17_1921,Face-Threshold,3.0.4,None,
386,4,0.004656835615167887,1,0,Schematic,ideal,2019_Mar_17_1921,Face-Threshold,3.0.4,None,
387,4,0.0035346953127046166,1,0,Schematic,ideal,2019_Mar_17_1921,Face-Threshold,3.0.4,None,
388,4,0.002400951726829692,0,0,Schematic,ideal,2019_Mar_17_1921,Face-Threshold,3.0.4,None,
389,4,0.004285477829193196,0,0,Schematic,ideal,2019_Mar_17_1921,Face-Threshold,3.0.4,None,
390,4,0.006119360936283791,1,0,Schematic,ideal,2019_Mar_17_1921,Face-Threshold,3.0.4,None,
391,4,0.004974114577413702,1,0,Schematic,ideal,2019_Mar_17_1921,Face-Threshold,3.0.4,None,
392,4,0.003869942227628931,0,0,Schematic,ideal,2019_Mar_17_1921,Face-Threshold,3.0.4,None,
393,4,0.00569812637999878,1,0,Schematic,ideal,2019_Mar_17_1921,Face-Threshold,3.0.4,None,
394,4,0.004558625420994278,1,0,Schematic,ideal,2019_Mar_17_1921,Face-Threshold,3.0.4,None,
395,4,0.0034586008284467895,1,0,Schematic,ideal,2019_Mar_17_1921,Face-Threshold,3.0.4,None,
396,4,0.002346997643985216,1,0,Schematic,ideal,2019_Mar_17_1921,Face-Threshold,3.0.4,None,
397,4,0.0012203832892649924,1,0,Schematic,ideal,2019_Mar_17_1921,Face-Threshold,3.0.4,None,
398,4,7.524503563227647e-05,0,0,Schematic,ideal,2019_Mar_17_1921,Face-Threshold,3.0.4,None,
399,4,0.0019898870254091983,1,0,Schematic,ideal,2019_Mar_17_1921,Face-Threshold,3.0.4,None,
400,4,0.0008650521694410496,0,0,Schematic,ideal,2019_Mar_17_1921,Face-Threshold,3.0.4,None,
401,4,0.002742075082583173,0,0,Schematic,ideal,2019_Mar_17_1921,Face-Threshold,3.0.4,None,
402,4,0.004556918680879873,1,0,Schematic,ideal,2019_Mar_17_1921,Face-Threshold,3.0.4,None,
403,4,0.003478350927183571,1,0,Schematic,ideal,2019_Mar_17_1921,Face-Threshold,3.0.4,None,
404,4,0.0023885118181379283,1,0,Schematic,ideal,2019_Mar_17_1921,Face-Threshold,3.0.4,None,
405,4,0.001284099257597926,0,0,Schematic,ideal,2019_Mar_17_1921,Face-Threshold,3.0.4,None,
406,4,0.0031250746135657592,0,0,Schematic,ideal,2019_Mar_17_1921,Face-Threshold,3.0.4,None,
407,4,0.004908401264312967,0,0,Schematic,ideal,2019_Mar_17_1921,Face-Threshold,3.0.4,None,
408,4,0.006649930189581377,1,0,Schematic,ideal,2019_Mar_17_1921,Face-Threshold,3.0.4,None,
409,4,0.005558786373239699,1,0,Schematic,ideal,2019_Mar_17_1921,Face-Threshold,3.0.4,None,
410,4,0.004462908512204489,1,0,Schematic,ideal,2019_Mar_17_1921,Face-Threshold,3.0.4,None,
411,4,0.0034047276223995726,1,0,Schematic,ideal,2019_Mar_17_1921,Face-Threshold,3.0.4,None,
412,4,0.0023352987536544023,1,0,Schematic,ideal,2019_Mar_17_1921,Face-Threshold,3.0.4,None,
413,4,0.0012514407015459805,1,0,Schematic,ideal,2019_Mar_17_1921,Face-Threshold,3.0.4,None,
414,4,0.00014989760878197922,1,0,Schematic,ideal,2019_Mar_17_1921,Face-Threshold,3.0.4,None,
415,4,0,0,0,Schematic,ideal,2019_Mar_17_1921,Face-Threshold,3.0.4,None,
416,4,0.0009088251887840459,1,0,Schematic,ideal,2019_Mar_17_1921,Face-Threshold,3.0.4,None,
417,4,0,1,0,Schematic,ideal,2019_Mar_17_1921,Face-Threshold,3.0.4,None,
418,4,0,1,0,Schematic,ideal,2019_Mar_17_1921,Face-Threshold,3.0.4,None,
419,4,0,1,0,Schematic,ideal,2019_Mar_17_1921,Face-Threshold,3.0.4,None,
420,4,0,0,0,Schematic,ideal,2019_Mar_17_1921,Face-Threshold,3.0.4,None,
421,4,0,0,0,Schematic,ideal,2019_Mar_17_1921,Face-Threshold,3.0.4,None,
422,4,0.00023023801227201046,0,0,Schematic,ideal,2019_Mar_17_1921,Face-Threshold,3.0.4,None,
423,4,0.002035952823508269,0,0,Schematic,ideal,2019_Mar_17_1921,Face-Threshold,3.0.4,None,
424,4,0.0037778440404139246,0,0,Schematic,ideal,2019_Mar_17_1921,Face-Threshold,3.0.4,None,
425,4,0.005471179085839106,1,0,Schematic,ideal,2019_Mar_17_1921,Face-Threshold,3.0.4,None,
426,4,0.004415642406331077,0,0,Schematic,ideal,2019_Mar_17_1921,Face-Threshold,3.0.4,None,
427,4,0.006087622427518813,0,0,Schematic,ideal,2019_Mar_17_1921,Face-Threshold,3.0.4,None,
428,4,0.007867476526575268,1,0,Schematic,ideal,2019_Mar_17_1921,Face-Threshold,3.0.4,None,
429,4,0.006832406320390894,1,0,Schematic,ideal,2019_Mar_17_1921,Face-Threshold,3.0.4,None,
430,4,0.0057967510247238785,1,0,Schematic,ideal,2019_Mar_17_1921,Face-Threshold,3.0.4,None,
431,4,0.0047573597742404106,1,0,Schematic,ideal,2019_Mar_17_1921,Face-Threshold,3.0.4,None,
432,4,0.0037546761977286236,0,0,Schematic,ideal,2019_Mar_17_1921,Face-Threshold,3.0.4,None,
433,4,0.0054151714551689545,0,0,Schematic,ideal,2019_Mar_17_1921,Face-Threshold,3.0.4,None,
434,4,0.007177427577878759,1,0,Schematic,ideal,2019_Mar_17_1921,Face-Threshold,3.0.4,None,
435,4,0.006155955876149866,0,0,Schematic,ideal,2019_Mar_17_1921,Face-Threshold,3.0.4,None,
436,4,0.007899468408808563,1,0,Schematic,ideal,2019_Mar_17_1921,Face-Threshold,3.0.4,None,
437,4,0.006885057822429985,1,0,Schematic,ideal,2019_Mar_17_1921,Face-Threshold,3.0.4,None,
438,4,0.0058702459484408775,1,0,Schematic,ideal,2019_Mar_17_1921,Face-Threshold,3.0.4,None,
439,4,0.00485200481792919,1,0,Schematic,ideal,2019_Mar_17_1921,Face-Threshold,3.0.4,None,
440,4,0.0038700276766372443,1,0,Schematic,ideal,2019_Mar_17_1921,Face-Threshold,3.0.4,None,
441,4,0.0028789284256703906,1,0,Schematic,ideal,2019_Mar_17_1921,Face-Threshold,3.0.4,None,
442,4,0.001875963377361567,1,0,Schematic,ideal,2019_Mar_17_1921,Face-Threshold,3.0.4,None,
443,4,0.0008583316166718147,0,0,Schematic,ideal,2019_Mar_17_1921,Face-Threshold,3.0.4,None,
444,4,0.0025562874102437183,1,0,Schematic,ideal,2019_Mar_17_1921,Face-Threshold,3.0.4,None,
445,4,0.0015547426003716391,1,0,Schematic,ideal,2019_Mar_17_1921,Face-Threshold,3.0.4,None,
446,4,0.0005377241181780956,0,0,Schematic,ideal,2019_Mar_17_1921,Face-Threshold,3.0.4,None,
447,4,0.0022359871718153346,1,0,Schematic,ideal,2019_Mar_17_1921,Face-Threshold,3.0.4,None,
448,4,0.001235564245185894,1,0,Schematic,ideal,2019_Mar_17_1921,Face-Threshold,3.0.4,None,
449,4,0.00021887182897811774,1,0,Schematic,ideal,2019_Mar_17_1921,Face-Threshold,3.0.4,None,
450,4,0,0,0,Schematic,ideal,2019_Mar_17_1921,Face-Threshold,3.0.4,None,
451,4,0.0009183053043829159,0,0,Schematic,ideal,2019_Mar_17_1921,Face-Threshold,3.0.4,None,
452,4,0.00258587573933583,1,0,Schematic,ideal,2019_Mar_17_1921,Face-Threshold,3.0.4,None,
453,4,0.0016018920207543363,1,0,Schematic,ideal,2019_Mar_17_1921,Face-Threshold,3.0.4,None,
454,4,0.000602846548229452,0,0,Schematic,ideal,2019_Mar_17_1921,Face-Threshold,3.0.4,None,
455,4,0.0022707925749524405,0,0,Schematic,ideal,2019_Mar_17_1921,Face-Threshold,3.0.4,None,
456,4,0.0038830808486475243,0,0,Schematic,ideal,2019_Mar_17_1921,Face-Threshold,3.0.4,None,
457,4,0.005452771921318822,0,0,Schematic,ideal,2019_Mar_17_1921,Face-Threshold,3.0.4,None,
458,4,0.0071202392727604535,1,0,Schematic,ideal,2019_Mar_17_1921,Face-Threshold,3.0.4,None,
459,4,0.006153202164771887,0,0,Schematic,ideal,2019_Mar_17_1921,Face-Threshold,3.0.4,None,
460,4,0.007803743753881487,1,0,Schematic,ideal,2019_Mar_17_1921,Face-Threshold,3.0.4,None,
461,4,0.006843112004788154,1,0,Schematic,ideal,2019_Mar_17_1921,Face-Threshold,3.0.4,None,
462,4,0.00588202702749302,0,0,Schematic,ideal,2019_Mar_17_1921,Face-Threshold,3.0.4,None,
463,4,0.007523706763728488,1,0,Schematic,ideal,2019_Mar_17_1921,Face-Threshold,3.0.4,None,
464,4,0.006569498254870854,0,0,Schematic,ideal,2019_Mar_17_1921,Face-Threshold,3.0.4,None,
465,4,0.008196136779826835,1,0,Schematic,ideal,2019_Mar_17_1921,Face-Threshold,3.0.4,None,
466,4,0.007247356424856188,0,0,Schematic,ideal,2019_Mar_17_1921,Face-Threshold,3.0.4,None,
467,4,0.008861502505492613,1,0,Schematic,ideal,2019_Mar_17_1921,Face-Threshold,3.0.4,None,
468,4,0.007916750423948626,1,0,Schematic,ideal,2019_Mar_17_1921,Face-Threshold,3.0.4,None,
469,4,0.006974559368631783,1,0,Schematic,ideal,2019_Mar_17_1921,Face-Threshold,3.0.4,None,
470,4,0.006032303402583428,1,0,Schematic,ideal,2019_Mar_17_1921,Face-Threshold,3.0.4,None,
471,4,0.005087364566532304,1,0,Schematic,ideal,2019_Mar_17_1921,Face-Threshold,3.0.4,None,
472,4,0.0041371185325935755,1,0,Schematic,ideal,2019_Mar_17_1921,Face-Threshold,3.0.4,None,
473,4,0.003218775728989487,0,0,Schematic,ideal,2019_Mar_17_1921,Face-Threshold,3.0.4,None,
474,4,0.004741644241963716,0,0,Schematic,ideal,2019_Mar_17_1921,Face-Threshold,3.0.4,None,
475,4,0.006230894535532938,1,0,Schematic,ideal,2019_Mar_17_1921,Face-Threshold,3.0.4,None,
476,4,0.005297637766886187,1,0,Schematic,ideal,2019_Mar_17_1921,Face-Threshold,3.0.4,None,
477,4,0.0043597198397951065,0,0,Schematic,ideal,2019_Mar_17_1921,Face-Threshold,3.0.4,None,
478,4,0.005845478793101655,0,0,Schematic,ideal,2019_Mar_17_1921,Face-Threshold,3.0.4,None,
479,4,0.007427818777985817,1,0,Schematic,ideal,2019_Mar_17_1921,Face-Threshold,3.0.4,None,
480,4,0.006508072706794599,1,0,Schematic,ideal,2019_Mar_17_1921,Face-Threshold,3.0.4,None,
481,4,0.0055870141662253126,1,0,Schematic,ideal,2019_Mar_17_1921,Face-Threshold,3.0.4,None,
482,4,0.004662143538372632,1,0,Schematic,ideal,2019_Mar_17_1921,Face-Threshold,3.0.4,None,
483,4,0.0037697767199015852,1,0,Schematic,ideal,2019_Mar_17_1921,Face-Threshold,3.0.4,None,
484,4,0.002868966082039681,1,0,Schematic,ideal,2019_Mar_17_1921,Face-Threshold,3.0.4,None,
485,4,0.0019574370935017127,0,0,Schematic,ideal,2019_Mar_17_1921,Face-Threshold,3.0.4,None,
486,4,0.0034739763895880738,1,0,Schematic,ideal,2019_Mar_17_1921,Face-Threshold,3.0.4,None,
487,4,0.002574703338056372,1,0,Schematic,ideal,2019_Mar_17_1921,Face-Threshold,3.0.4,None,
488,4,0.001664030767452196,1,0,Schematic,ideal,2019_Mar_17_1921,Face-Threshold,3.0.4,None,
489,4,0.0007396424929640988,1,0,Schematic,ideal,2019_Mar_17_1921,Face-Threshold,3.0.4,None,
490,4,0,0,0,Schematic,ideal,2019_Mar_17_1921,Face-Threshold,3.0.4,None,
491,4,0.0013722217123915414,0,0,Schematic,ideal,2019_Mar_17_1921,Face-Threshold,3.0.4,None,
492,4,0.0028885546365460812,1,0,Schematic,ideal,2019_Mar_17_1921,Face-Threshold,3.0.4,None,
493,4,0.0019916002312659886,1,0,Schematic,ideal,2019_Mar_17_1921,Face-Threshold,3.0.4,None,
494,4,0.001081910792038565,0,0,Schematic,ideal,2019_Mar_17_1921,Face-Threshold,3.0.4,None,
495,4,0.0025987159109455704,1,0,Schematic,ideal,2019_Mar_17_1921,Face-Threshold,3.0.4,None,
496,4,0.0017025539986981753,1,0,Schematic,ideal,2019_Mar_17_1921,Face-Threshold,3.0.4,None,
497,4,0.0007930016261076256,0,0,Schematic,ideal,2019_Mar_17_1921,Face-Threshold,3.0.4,None,
498,4,0.0023106524317200172,0,0,Schematic,ideal,2019_Mar_17_1921,Face-Threshold,3.0.4,None,
499,4,0.003779684898132629,1,0,Schematic,ideal,2019_Mar_17_1921,Face-Threshold,3.0.4,None,
500,4,0.0029071046995734484,1,0,Schematic,ideal,2019_Mar_17_1921,Face-Threshold,3.0.4,None,
501,4,0.002024263349405475,0,0,Schematic,ideal,2019_Mar_17_1921,Face-Threshold,3.0.4,None,
502,4,0.003492766405071901,1,0,Schematic,ideal,2019_Mar_17_1921,Face-Threshold,3.0.4,None,
503,4,0.002621560105499965,1,0,Schematic,ideal,2019_Mar_17_1921,Face-Threshold,3.0.4,None,
504,4,0.001739450681886301,1,0,Schematic,ideal,2019_Mar_17_1921,Face-Threshold,3.0.4,None,
505,4,0.0008442618485768327,0,0,Schematic,ideal,2019_Mar_17_1921,Face-Threshold,3.0.4,None,
506,4,0.002337726809183205,1,0,Schematic,ideal,2019_Mar_17_1921,Face-Threshold,3.0.4,None,
507,4,0.0014561191841795385,1,0,Schematic,ideal,2019_Mar_17_1921,Face-Threshold,3.0.4,None,
508,4,0.0005608025918555914,1,0,Schematic,ideal,2019_Mar_17_1921,Face-Threshold,3.0.4,None,
509,4,0,1,0,Schematic,ideal,2019_Mar_17_1921,Face-Threshold,3.0.4,None,
510,4,0,0,0,Schematic,ideal,2019_Mar_17_1921,Face-Threshold,3.0.4,None,
511,4,0.0002785132390963896,1,0,Schematic,ideal,2019_Mar_17_1921,Face-Threshold,3.0.4,None,
512,4,0,1,0,Schematic,ideal,2019_Mar_17_1921,Face-Threshold,3.0.4,None,
513,4,0,0,0,Schematic,ideal,2019_Mar_17_1921,Face-Threshold,3.0.4,None,
514,4,0,0,0,Schematic,ideal,2019_Mar_17_1921,Face-Threshold,3.0.4,None,
515,4,0.0014955338728971923,1,0,Schematic,ideal,2019_Mar_17_1921,Face-Threshold,3.0.4,None,
516,4,0.000614097755089249,1,0,Schematic,ideal,2019_Mar_17_1921,Face-Threshold,3.0.4,None,
517,4,0,1,0,Schematic,ideal,2019_Mar_17_1921,Face-Threshold,3.0.4,None,
518,4,0,0,0,Schematic,ideal,2019_Mar_17_1921,Face-Threshold,3.0.4,None,
519,4,0.0003357890128969365,1,0,Schematic,ideal,2019_Mar_17_1921,Face-Threshold,3.0.4,None,
520,4,0,0,0,Schematic,ideal,2019_Mar_17_1921,Face-Threshold,3.0.4,None,
521,4,0.0009409125044473887,0,0,Schematic,ideal,2019_Mar_17_1921,Face-Threshold,3.0.4,None,
522,4,0.0023882665083029275,1,0,Schematic,ideal,2019_Mar_17_1921,Face-Threshold,3.0.4,None,
523,4,0.0015333751750334357,1,0,Schematic,ideal,2019_Mar_17_1921,Face-Threshold,3.0.4,None,
524,4,0.0006653921558318343,1,0,Schematic,ideal,2019_Mar_17_1921,Face-Threshold,3.0.4,None,
525,4,0,0,0,Schematic,ideal,2019_Mar_17_1921,Face-Threshold,3.0.4,None,
526,4,0.0012593351490113314,0,0,Schematic,ideal,2019_Mar_17_1921,Face-Threshold,3.0.4,None,
527,4,0.002683709918975097,1,0,Schematic,ideal,2019_Mar_17_1921,Face-Threshold,3.0.4,None,
528,4,0.0018412161747626832,0,0,Schematic,ideal,2019_Mar_17_1921,Face-Threshold,3.0.4,None,
529,4,0.0032431783664896296,1,0,Schematic,ideal,2019_Mar_17_1921,Face-Threshold,3.0.4,None,
530,4,0.002411858723611493,1,0,Schematic,ideal,2019_Mar_17_1921,Face-Threshold,3.0.4,None,
531,4,0.0015697230622120917,0,0,Schematic,ideal,2019_Mar_17_1921,Face-Threshold,3.0.4,None,
532,4,0.002972047643630127,1,0,Schematic,ideal,2019_Mar_17_1921,Face-Threshold,3.0.4,None,
533,4,0.002141455564248662,0,0,Schematic,ideal,2019_Mar_17_1921,Face-Threshold,3.0.4,None,
534,4,0.003522531865365608,0,0,Schematic,ideal,2019_Mar_17_1921,Face-Threshold,3.0.4,None,
535,4,0.004867621889259766,0,0,Schematic,ideal,2019_Mar_17_1921,Face-Threshold,3.0.4,None,
536,4,0.0061857305250952455,1,0,Schematic,ideal,2019_Mar_17_1921,Face-Threshold,3.0.4,None,
537,4,0.005358636842349884,1,0,Schematic,ideal,2019_Mar_17_1921,Face-Threshold,3.0.4,None,
538,4,0.004527644235427952,1,0,Schematic,ideal,2019_Mar_17_1921,Face-Threshold,3.0.4,None,
539,4,0.0037256223624987928,1,0,Schematic,ideal,2019_Mar_17_1921,Face-Threshold,3.0.4,None,
540,4,0.0029160147360854927,0,0,Schematic,ideal,2019_Mar_17_1921,Face-Threshold,3.0.4,None,
541,4,0.004259454849305844,1,0,Schematic,ideal,2019_Mar_17_1921,Face-Threshold,3.0.4,None,
542,4,0.0034589750112078432,1,0,Schematic,ideal,2019_Mar_17_1921,Face-Threshold,3.0.4,None,
543,4,0.002650347044712398,0,0,Schematic,ideal,2019_Mar_17_1921,Face-Threshold,3.0.4,None,
544,4,0.00399309357869343,1,0,Schematic,ideal,2019_Mar_17_1921,Face-Threshold,3.0.4,None,
545,4,0.003193944567342455,1,0,Schematic,ideal,2019_Mar_17_1921,Face-Threshold,3.0.4,None,
546,4,0.0023860922478710633,0,0,Schematic,ideal,2019_Mar_17_1921,Face-Threshold,3.0.4,None,
547,4,0.003728469494788056,1,0,Schematic,ideal,2019_Mar_17_1921,Face-Threshold,3.0.4,None,
548,4,0.0029304446457245614,0,0,Schematic,ideal,2019_Mar_17_1921,Face-Threshold,3.0.4,None,
549,4,0.004254592089521336,1,0,Schematic,ideal,2019_Mar_17_1921,Face-Threshold,3.0.4,None,
550,4,0.003465494197623875,0,0,Schematic,ideal,2019_Mar_17_1921,Face-Threshold,3.0.4,None,
551,4,0.004772954343147617,1,0,Schematic,ideal,2019_Mar_17_1921,Face-Threshold,3.0.4,None,
552,4,0.0039919156162041,1,0,Schematic,ideal,2019_Mar_17_1921,Face-Threshold,3.0.4,None,
553,4,0.0032040817066226746,1,0,Schematic,ideal,2019_Mar_17_1921,Face-Threshold,3.0.4,None,
554,4,0.0024077023302631617,1,0,Schematic,ideal,2019_Mar_17_1921,Face-Threshold,3.0.4,None,
555,4,0.0016009932325620757,1,0,Schematic,ideal,2019_Mar_17_1921,Face-Threshold,3.0.4,None,
556,4,0.0007821285018230761,1,0,Schematic,ideal,2019_Mar_17_1921,Face-Threshold,3.0.4,None,
557,4,0,0,0,Schematic,ideal,2019_Mar_17_1921,Face-Threshold,3.0.4,None,
558,4,0.001341588298375218,1,0,Schematic,ideal,2019_Mar_17_1921,Face-Threshold,3.0.4,None,
559,4,0.0005221936081212242,0,0,Schematic,ideal,2019_Mar_17_1921,Face-Threshold,3.0.4,None,
560,4,0.001890101616455142,0,0,Schematic,ideal,2019_Mar_17_1921,Face-Threshold,3.0.4,None,
561,4,0.003213625256204833,0,0,Schematic,ideal,2019_Mar_17_1921,Face-Threshold,3.0.4,None,
562,4,0.0045016102802321045,1,0,Schematic,ideal,2019_Mar_17_1921,Face-Threshold,3.0.4,None,
563,4,0.003732995012153739,1,0,Schematic,ideal,2019_Mar_17_1921,Face-Threshold,3.0.4,None,
564,4,0.0029571637875246415,1,0,Schematic,ideal,2019_Mar_17_1921,Face-Threshold,3.0.4,None,
565,4,0.0021724191555101413,0,0,Schematic,ideal,2019_Mar_17_1921,Face-Threshold,3.0.4,None,
566,4,0.00347707039325601,0,0,Schematic,ideal,2019_Mar_17_1921,Face-Threshold,3.0.4,None,
567,4,0.004748303814236687,0,0,Schematic,ideal,2019_Mar_17_1921,Face-Threshold,3.0.4,None,
568,4,0.005994172727190883,0,0,Schematic,ideal,2019_Mar_17_1921,Face-Threshold,3.0.4,None,
569,4,0.0073248123973044255,1,0,Schematic,ideal,2019_Mar_17_1921,Face-Threshold,3.0.4,None,
570,4,0.0065500215040582566,1,0,Schematic,ideal,2019_Mar_17_1921,Face-Threshold,3.0.4,None,
571,4,0.005774353130524212,1,0,Schematic,ideal,2019_Mar_17_1921,Face-Threshold,3.0.4,None,
572,4,0.00499602283724615,1,0,Schematic,ideal,2019_Mar_17_1921,Face-Threshold,3.0.4,None,
573,4,0.004245966670866241,1,0,Schematic,ideal,2019_Mar_17_1921,Face-Threshold,3.0.4,None,
574,4,0.003489943288638775,1,0,Schematic,ideal,2019_Mar_17_1921,Face-Threshold,3.0.4,None,
575,4,0.0027263371376883283,1,0,Schematic,ideal,2019_Mar_17_1921,Face-Threshold,3.0.4,None,
576,4,0.0019535036353293678,0,0,Schematic,ideal,2019_Mar_17_1921,Face-Threshold,3.0.4,None,
577,4,0.0032390470014486694,1,0,Schematic,ideal,2019_Mar_17_1921,Face-Threshold,3.0.4,None,
578,4,0.00247602401341368,1,0,Schematic,ideal,2019_Mar_17_1921,Face-Threshold,3.0.4,None,
579,4,0.001703278759307758,1,0,Schematic,ideal,2019_Mar_17_1921,Face-Threshold,3.0.4,None,
580,4,0.0009191323394973638,1,0,Schematic,ideal,2019_Mar_17_1921,Face-Threshold,3.0.4,None,
581,4,0.00012186109823247859,0,0,Schematic,ideal,2019_Mar_17_1921,Face-Threshold,3.0.4,None,
582,4,0.0014540378755190098,0,0,Schematic,ideal,2019_Mar_17_1921,Face-Threshold,3.0.4,None,
583,4,0.002741188087906632,1,0,Schematic,ideal,2019_Mar_17_1921,Face-Threshold,3.0.4,None,
584,4,0.0019787994775187223,0,0,Schematic,ideal,2019_Mar_17_1921,Face-Threshold,3.0.4,None,
585,4,0.0032468660017972995,1,0,Schematic,ideal,2019_Mar_17_1921,Face-Threshold,3.0.4,None,
586,4,0.0024940789928882268,1,0,Schematic,ideal,2019_Mar_17_1921,Face-Threshold,3.0.4,None,
587,4,0.0017317480101149973,1,0,Schematic,ideal,2019_Mar_17_1921,Face-Threshold,3.0.4,None,
588,4,0.0009582380357541775,0,0,Schematic,ideal,2019_Mar_17_1921,Face-Threshold,3.0.4,None,
589,4,0.002248088830141659,1,0,Schematic,ideal,2019_Mar_17_1921,Face-Threshold,3.0.4,None,
590,4,0.0014856464645479628,1,0,Schematic,ideal,2019_Mar_17_1921,Face-Threshold,3.0.4,None,
591,4,0.000711547885531516,0,0,Schematic,ideal,2019_Mar_17_1921,Face-Threshold,3.0.4,None,
592,4,0.002003148757727058,0,0,Schematic,ideal,2019_Mar_17_1921,Face-Threshold,3.0.4,None,
593,4,0.0032542115007831995,0,0,Schematic,ideal,2019_Mar_17_1921,Face-Threshold,3.0.4,None,
594,4,0.004472639590761274,1,0,Schematic,ideal,2019_Mar_17_1921,Face-Threshold,3.0.4,None,
595,4,0.003745188285936618,1,0,Schematic,ideal,2019_Mar_17_1921,Face-Threshold,3.0.4,None,
596,4,0.0030109776482748485,1,0,Schematic,ideal,2019_Mar_17_1921,Face-Threshold,3.0.4,None,
597,4,0.0022684837463304297,1,0,Schematic,ideal,2019_Mar_17_1921,Face-Threshold,3.0.4,None,
598,4,0.0015161515779785195,0,0,Schematic,ideal,2019_Mar_17_1921,Face-Threshold,3.0.4,None,
599,4,0.0027689248669415245,0,0,Schematic,ideal,2019_Mar_17_1921,Face-Threshold,3.0.4,None,
600,4,0.0039865426632405,1,0,Schematic,ideal,2019_Mar_17_1921,Face-Threshold,3.0.4,None,
601,4,0.0032611079879929505,1,0,Schematic,ideal,2019_Mar_17_1921,Face-Threshold,3.0.4,None,
602,4,0.0025279849506206764,0,0,Schematic,ideal,2019_Mar_17_1921,Face-Threshold,3.0.4,None,
603,4,0.0037456015319161096,0,0,Schematic,ideal,2019_Mar_17_1921,Face-Threshold,3.0.4,None,
604,4,0.004934272678359053,0,0,Schematic,ideal,2019_Mar_17_1921,Face-Threshold,3.0.4,None,
605,4,0.006101028838202627,1,0,Schematic,ideal,2019_Mar_17_1921,Face-Threshold,3.0.4,None,
606,4,0.005368186327567581,1,0,Schematic,ideal,2019_Mar_17_1921,Face-Threshold,3.0.4,None,
607,4,0.0046319908489940165,0,0,Schematic,ideal,2019_Mar_17_1921,Face-Threshold,3.0.4,None,
608,4,0.00579691325337478,1,0,Schematic,ideal,2019_Mar_17_1921,Face-Threshold,3.0.4,None,
609,4,0.005066269903054033,1,0,Schematic,ideal,2019_Mar_17_1921,Face-Threshold,3.0.4,None,
610,4,0.004331636991987908,1,0,Schematic,ideal,2019_Mar_17_1921,Face-Threshold,3.0.4,None,
611,4,0.0036222882977883786,1,0,Schematic,ideal,2019_Mar_17_1921,Face-Threshold,3.0.4,None,
612,4,0.0029061311724064565,1,0,Schematic,ideal,2019_Mar_17_1921,Face-Threshold,3.0.4,None,
613,4,0.0021817144728857873,1,0,Schematic,ideal,2019_Mar_17_1921,Face-Threshold,3.0.4,None,
614,4,0.00144755671274871,1,0,Schematic,ideal,2019_Mar_17_1921,Face-Threshold,3.0.4,None,
615,4,0.00070214025182741,1,0,Schematic,ideal,2019_Mar_17_1921,Face-Threshold,3.0.4,None,
616,4,0,1,0,Schematic,ideal,2019_Mar_17_1921,Face-Threshold,3.0.4,None,
617,4,0,1,0,Schematic,ideal,2019_Mar_17_1921,Face-Threshold,3.0.4,None,
618,4,0,1,0,Schematic,ideal,2019_Mar_17_1921,Face-Threshold,3.0.4,None,
619,4,0,0,0,Schematic,ideal,2019_Mar_17_1921,Face-Threshold,3.0.4,None,
620,4,0,1,0,Schematic,ideal,2019_Mar_17_1921,Face-Threshold,3.0.4,None,
621,4,0,0,0,Schematic,ideal,2019_Mar_17_1921,Face-Threshold,3.0.4,None,
622,4,0,0,0,Schematic,ideal,2019_Mar_17_1921,Face-Threshold,3.0.4,None,
623,4,0.0007407777166742457,1,0,Schematic,ideal,2019_Mar_17_1921,Face-Threshold,3.0.4,None,
624,4,0,0,0,Schematic,ideal,2019_Mar_17_1921,Face-Threshold,3.0.4,None,
625,4,0.0012431563144435498,1,0,Schematic,ideal,2019_Mar_17_1921,Face-Threshold,3.0.4,None,
626,4,0.0005064479251641885,0,0,Schematic,ideal,2019_Mar_17_1921,Face-Threshold,3.0.4,None,
627,4,0.001736173663382523,1,0,Schematic,ideal,2019_Mar_17_1921,Face-Threshold,3.0.4,None,
628,4,0.0010103687516750948,0,0,Schematic,ideal,2019_Mar_17_1921,Face-Threshold,3.0.4,None,
629,4,0.0022204122848769603,1,0,Schematic,ideal,2019_Mar_17_1921,Face-Threshold,3.0.4,None,
630,4,0.0015047342199078773,0,0,Schematic,ideal,2019_Mar_17_1921,Face-Threshold,3.0.4,None,
631,4,0.002696430082895329,0,0,Schematic,ideal,2019_Mar_17_1921,Face-Threshold,3.0.4,None,
632,4,0.0038549467499671697,0,0,Schematic,ideal,2019_Mar_17_1921,Face-Threshold,3.0.4,None,
633,4,0.004987032731692875,1,0,Schematic,ideal,2019_Mar_17_1921,Face-Threshold,3.0.4,None,
634,4,0.0043090743819850785,1,0,Schematic,ideal,2019_Mar_17_1921,Face-Threshold,3.0.4,None,
635,4,0.0036259211317315465,0,0,Schematic,ideal,2019_Mar_17_1921,Face-Threshold,3.0.4,None,
636,4,0.004757168208140705,1,0,Schematic,ideal,2019_Mar_17_1921,Face-Threshold,3.0.4,None,
637,4,0.00408040086116368,1,0,Schematic,ideal,2019_Mar_17_1921,Face-Threshold,3.0.4,None,
638,4,0.003398022432750336,1,0,Schematic,ideal,2019_Mar_17_1921,Face-Threshold,3.0.4,None,
639,4,0.0027087112392269463,1,0,Schematic,ideal,2019_Mar_17_1921,Face-Threshold,3.0.4,None,
640,4,0.002011121221128953,1,0,Schematic,ideal,2019_Mar_17_1921,Face-Threshold,3.0.4,None,
641,4,0.0013038768916098786,0,0,Schematic,ideal,2019_Mar_17_1921,Face-Threshold,3.0.4,None,
642,4,0.0024820935605529004,0,0,Schematic,ideal,2019_Mar_17_1921,Face-Threshold,3.0.4,None,
643,4,0.0036266403289904603,1,0,Schematic,ideal,2019_Mar_17_1921,Face-Threshold,3.0.4,None,
644,4,0.002945361837912941,1,0,Schematic,ideal,2019_Mar_17_1921,Face-Threshold,3.0.4,None,
645,4,0.0022563371901385687,1,0,Schematic,ideal,2019_Mar_17_1921,Face-Threshold,3.0.4,None,
646,4,0.0015582228746391369,0,0,Schematic,ideal,2019_Mar_17_1921,Face-Threshold,3.0.4,None,
647,4,0.0027204814324028326,1,0,Schematic,ideal,2019_Mar_17_1921,Face-Threshold,3.0.4,None,
648,4,0.002031385847606426,0,0,Schematic,ideal,2019_Mar_17_1921,Face-Threshold,3.0.4,None,
649,4,0.0031772519358289064,1,0,Schematic,ideal,2019_Mar_17_1921,Face-Threshold,3.0.4,None,
650,4,0.002496490816497332,0,0,Schematic,ideal,2019_Mar_17_1921,Face-Threshold,3.0.4,None,
651,4,0.003627135897250222,0,0,Schematic,ideal,2019_Mar_17_1921,Face-Threshold,3.0.4,None,
652,4,0.004731176948338245,1,0,Schematic,ideal,2019_Mar_17_1921,Face-Threshold,3.0.4,None,
653,4,0.004070601708015709,1,0,Schematic,ideal,2019_Mar_17_1921,Face-Threshold,3.0.4,None,
654,4,0.003404550726696154,1,0,Schematic,ideal,2019_Mar_17_1921,Face-Threshold,3.0.4,None,
655,4,0.002731763425363687,1,0,Schematic,ideal,2019_Mar_17_1921,Face-Threshold,3.0.4,None,
656,4,0.0020509560248322956,1,0,Schematic,ideal,2019_Mar_17_1921,Face-Threshold,3.0.4,None,
657,4,0.0013608168392387765,1,0,Schematic,ideal,2019_Mar_17_1921,Face-Threshold,3.0.4,None,
658,4,0.0006600014381519803,0,0,Schematic,ideal,2019_Mar_17_1921,Face-Threshold,3.0.4,None,
659,4,0.0018293033308324214,1,0,Schematic,ideal,2019_Mar_17_1921,Face-Threshold,3.0.4,None,
660,4,0.0011385460176518425,1,0,Schematic,ideal,2019_Mar_17_1921,Face-Threshold,3.0.4,None,
661,4,0.000436722000111911,1,0,Schematic,ideal,2019_Mar_17_1921,Face-Threshold,3.0.4,None,
662,4,0,1,0,Schematic,ideal,2019_Mar_17_1921,Face-Threshold,3.0.4,None,
663,4,0,1,0,Schematic,ideal,2019_Mar_17_1921,Face-Threshold,3.0.4,None,
664,4,0,0,0,Schematic,ideal,2019_Mar_17_1921,Face-Threshold,3.0.4,None,
665,4,0,1,0,Schematic,ideal,2019_Mar_17_1921,Face-Threshold,3.0.4,None,
666,4,0,0,0,Schematic,ideal,2019_Mar_17_1921,Face-Threshold,3.0.4,None,
667,4,0,0,0,Schematic,ideal,2019_Mar_17_1921,Face-Threshold,3.0.4,None,
668,4,0.0011681761382816847,0,0,Schematic,ideal,2019_Mar_17_1921,Face-Threshold,3.0.4,None,
669,4,0.002305530932222133,1,0,Schematic,ideal,2019_Mar_17_1921,Face-Threshold,3.0.4,None,
670,4,0.0016321884580011714,1,0,Schematic,ideal,2019_Mar_17_1921,Face-Threshold,3.0.4,None,
671,4,0.0009489089837963482,1,0,Schematic,ideal,2019_Mar_17_1921,Face-Threshold,3.0.4,None,
672,4,0.0002543758308715116,0,0,Schematic,ideal,2019_Mar_17_1921,Face-Threshold,3.0.4,None,
673,4,0.0014142773198023706,0,0,Schematic,ideal,2019_Mar_17_1921,Face-Threshold,3.0.4,None,
674,4,0.0025364858718450733,1,0,Schematic,ideal,2019_Mar_17_1921,Face-Threshold,3.0.4,None,
675,4,0.0018714023207830888,1,0,Schematic,ideal,2019_Mar_17_1921,Face-Threshold,3.0.4,None,
676,4,0.0011969168118205475,1,0,Schematic,ideal,2019_Mar_17_1921,Face-Threshold,3.0.4,None,
677,4,0.0005117445331540571,0,0,Schematic,ideal,2019_Mar_17_1921,Face-Threshold,3.0.4,None,
678,4,0.0016553057453330133,1,0,Schematic,ideal,2019_Mar_17_1921,Face-Threshold,3.0.4,None,
679,4,0.0009800585962775332,1,0,Schematic,ideal,2019_Mar_17_1921,Face-Threshold,3.0.4,None,
680,4,0.0002937527169254994,1,0,Schematic,ideal,2019_Mar_17_1921,Face-Threshold,3.0.4,None,
681,4,0,1,0,Schematic,ideal,2019_Mar_17_1921,Face-Threshold,3.0.4,None,
682,4,0,1,0,Schematic,ideal,2019_Mar_17_1921,Face-Threshold,3.0.4,None,
683,4,0,0,0,Schematic,ideal,2019_Mar_17_1921,Face-Threshold,3.0.4,None,
684,4,0,0,0,Schematic,ideal,2019_Mar_17_1921,Face-Threshold,3.0.4,None,
685,4,0.0005476601644117118,1,0,Schematic,ideal,2019_Mar_17_1921,Face-Threshold,3.0.4,None,
686,4,0,1,0,Schematic,ideal,2019_Mar_17_1921,Face-Threshold,3.0.4,None,
687,4,0,0,0,Schematic,ideal,2019_Mar_17_1921,Face-Threshold,3.0.4,None,
688,4,0.00033202763812612,1,0,Schematic,ideal,2019_Mar_17_1921,Face-Threshold,3.0.4,None,
689,4,0,0,0,Schematic,ideal,2019_Mar_17_1921,Face-Threshold,3.0.4,None,
690,4,0.0007962374176058162,1,0,Schematic,ideal,2019_Mar_17_1921,Face-Threshold,3.0.4,None,
691,4,0.00011671271580743214,1,0,Schematic,ideal,2019_Mar_17_1921,Face-Threshold,3.0.4,None,
692,4,0,0,0,Schematic,ideal,2019_Mar_17_1921,Face-Threshold,3.0.4,None,
693,4,0.0005825659764850943,1,0,Schematic,ideal,2019_Mar_17_1921,Face-Threshold,3.0.4,None,
694,4,0,0,0,Schematic,ideal,2019_Mar_17_1921,Face-Threshold,3.0.4,None,
695,4,0.0010396715624995667,0,0,Schematic,ideal,2019_Mar_17_1921,Face-Threshold,3.0.4,None,
696,4,0.0021393533621818506,1,0,Schematic,ideal,2019_Mar_17_1921,Face-Threshold,3.0.4,None,
697,4,0.001488530280556899,0,0,Schematic,ideal,2019_Mar_17_1921,Face-Threshold,3.0.4,None,
698,4,0.0025721434434229917,0,0,Schematic,ideal,2019_Mar_17_1921,Face-Threshold,3.0.4,None,
699,4,0.003626048105007107,0,0,Schematic,ideal,2019_Mar_17_1921,Face-Threshold,3.0.4,None,
700,4,0.004655846521024631,0,0,Schematic,ideal,2019_Mar_17_1921,Face-Threshold,3.0.4,None,
701,4,0.005666838366610971,1,0,Schematic,ideal,2019_Mar_17_1921,Face-Threshold,3.0.4,None,
702,4,0.00503221648274238,1,0,Schematic,ideal,2019_Mar_17_1921,Face-Threshold,3.0.4,None,
703,4,0.00439415102493107,1,0,Schematic,ideal,2019_Mar_17_1921,Face-Threshold,3.0.4,None,
704,4,0.0037782649158532577,1,0,Schematic,ideal,2019_Mar_17_1921,Face-Threshold,3.0.4,None,
705,4,0.00315683015952134,0,0,Schematic,ideal,2019_Mar_17_1921,Face-Threshold,3.0.4,None,
706,4,0.004187053973089883,1,0,Schematic,ideal,2019_Mar_17_1921,Face-Threshold,3.0.4,None,
707,4,0.0035717166646954124,1,0,Schematic,ideal,2019_Mar_17_1921,Face-Threshold,3.0.4,None,
708,4,0.0029504903914365777,1,0,Schematic,ideal,2019_Mar_17_1921,Face-Threshold,3.0.4,None,
709,4,0.0023222759605154852,1,0,Schematic,ideal,2019_Mar_17_1921,Face-Threshold,3.0.4,None,
710,4,0.0016859515042340067,1,0,Schematic,ideal,2019_Mar_17_1921,Face-Threshold,3.0.4,None,
711,4,0.0010403686442562732,1,0,Schematic,ideal,2019_Mar_17_1921,Face-Threshold,3.0.4,None,
712,4,0.0003843485370614852,0,0,Schematic,ideal,2019_Mar_17_1921,Face-Threshold,3.0.4,None,
713,4,0.0014795054826007847,0,0,Schematic,ideal,2019_Mar_17_1921,Face-Threshold,3.0.4,None,
714,4,0.0025399476753674155,1,0,Schematic,ideal,2019_Mar_17_1921,Face-Threshold,3.0.4,None,
715,4,0.001911119754959223,0,0,Schematic,ideal,2019_Mar_17_1921,Face-Threshold,3.0.4,None,
716,4,0.002956968800286175,1,0,Schematic,ideal,2019_Mar_17_1921,Face-Threshold,3.0.4,None,
717,4,0.002335652335410665,1,0,Schematic,ideal,2019_Mar_17_1921,Face-Threshold,3.0.4,None,
718,4,0.001706344692338324,0,0,Schematic,ideal,2019_Mar_17_1921,Face-Threshold,3.0.4,None,
719,4,0.002753527039545123,0,0,Schematic,ideal,2019_Mar_17_1921,Face-Threshold,3.0.4,None,
720,4,0.003773082072869527,1,0,Schematic,ideal,2019_Mar_17_1921,Face-Threshold,3.0.4,None,
721,4,0.003165151648922837,0,0,Schematic,ideal,2019_Mar_17_1921,Face-Threshold,3.0.4,None,
722,4,0.0041729402266798,1,0,Schematic,ideal,2019_Mar_17_1921,Face-Threshold,3.0.4,None,
723,4,0.0035709188775518985,1,0,Schematic,ideal,2019_Mar_17_1921,Face-Threshold,3.0.4,None,
724,4,0.0029631498985491223,1,0,Schematic,ideal,2019_Mar_17_1921,Face-Threshold,3.0.4,None,
725,4,0.002348580050851923,0,0,Schematic,ideal,2019_Mar_17_1921,Face-Threshold,3.0.4,None,
726,4,0.003369555758056253,1,0,Schematic,ideal,2019_Mar_17_1921,Face-Threshold,3.0.4,None,
727,4,0.0027618329803048014,1,0,Schematic,ideal,2019_Mar_17_1921,Face-Threshold,3.0.4,None,
728,4,0.002146986314101429,1,0,Schematic,ideal,2019_Mar_17_1921,Face-Threshold,3.0.4,None,
729,4,0.001523940465834983,0,0,Schematic,ideal,2019_Mar_17_1921,Face-Threshold,3.0.4,None,
730,4,0.00256115639623522,1,0,Schematic,ideal,2019_Mar_17_1921,Face-Threshold,3.0.4,None,
731,4,0.0019459214527974278,1,0,Schematic,ideal,2019_Mar_17_1921,Face-Threshold,3.0.4,None,
732,4,0.0013221657021234012,0,0,Schematic,ideal,2019_Mar_17_1921,Face-Threshold,3.0.4,None,
733,4,0.002361076495990988,0,0,Schematic,ideal,2019_Mar_17_1921,Face-Threshold,3.0.4,None,
734,4,0.0033710421968504156,0,0,Schematic,ideal,2019_Mar_17_1921,Face-Threshold,3.0.4,None,
735,4,0.004357222085057899,1,0,Schematic,ideal,2019_Mar_17_1921,Face-Threshold,3.0.4,None,
736,4,0.0037675171825777842,1,0,Schematic,ideal,2019_Mar_17_1921,Face-Threshold,3.0.4,None,
737,4,0.0031725118188453694,0,0,Schematic,ideal,2019_Mar_17_1921,Face-Threshold,3.0.4,None,
738,4,0.0041588306509211526,1,0,Schematic,ideal,2019_Mar_17_1921,Face-Threshold,3.0.4,None,
739,4,0.0035695568365191055,1,0,Schematic,ideal,2019_Mar_17_1921,Face-Threshold,3.0.4,None,
740,4,0.0029746694189920486,1,0,Schematic,ideal,2019_Mar_17_1921,Face-Threshold,3.0.4,None,
741,4,0.002373158236063988,1,0,Schematic,ideal,2019_Mar_17_1921,Face-Threshold,3.0.4,None,
742,4,0.0017639924388696548,1,0,Schematic,ideal,2019_Mar_17_1921,Face-Threshold,3.0.4,None,
743,4,0.0011461171113459345,0,0,Schematic,ideal,2019_Mar_17_1921,Face-Threshold,3.0.4,None,
744,4,0.0021756578311950547,1,0,Schematic,ideal,2019_Mar_17_1921,Face-Threshold,3.0.4,None,
745,4,0.0015658786165622662,0,0,Schematic,ideal,2019_Mar_17_1921,Face-Threshold,3.0.4,None,
746,4,0.0025808761342097086,0,0,Schematic,ideal,2019_Mar_17_1921,Face-Threshold,3.0.4,None,
747,4,0.0035686821043580674,1,0,Schematic,ideal,2019_Mar_17_1921,Face-Threshold,3.0.4,None,
748,4,0.0029800309728011953,1,0,Schematic,ideal,2019_Mar_17_1921,Face-Threshold,3.0.4,None,
749,4,0.0023848410591226776,0,0,Schematic,ideal,2019_Mar_17_1921,Face-Threshold,3.0.4,None,
750,4,0.0033734919913508965,1,0,Schematic,ideal,2019_Mar_17_1921,Face-Threshold,3.0.4,None,
751,4,0.002784830209415834,0,0,Schematic,ideal,2019_Mar_17_1921,Face-Threshold,3.0.4,None,
752,4,0.003761615682264019,1,0,Schematic,ideal,2019_Mar_17_1921,Face-Threshold,3.0.4,None,
753,4,0.0031789925302190825,1,0,Schematic,ideal,2019_Mar_17_1921,Face-Threshold,3.0.4,None,
754,4,0.0025902134830850243,1,0,Schematic,ideal,2019_Mar_17_1921,Face-Threshold,3.0.4,None,
755,4,0.0019942893099536008,1,0,Schematic,ideal,2019_Mar_17_1921,Face-Threshold,3.0.4,None,
756,4,0.0013902087113826234,1,0,Schematic,ideal,2019_Mar_17_1921,Face-Threshold,3.0.4,None,
757,4,0.0007769350429729927,1,0,Schematic,ideal,2019_Mar_17_1921,Face-Threshold,3.0.4,None,
758,4,0.00015340293008231365,1,0,Schematic,ideal,2019_Mar_17_1921,Face-Threshold,3.0.4,None,
759,4,0,1,0,Schematic,ideal,2019_Mar_17_1921,Face-Threshold,3.0.4,None,
760,4,0,0,0,Schematic,ideal,2019_Mar_17_1921,Face-Threshold,3.0.4,None,
761,4,0,0,0,Schematic,ideal,2019_Mar_17_1921,Face-Threshold,3.0.4,None,
762,4,0.0009996668844065026,0,0,Schematic,ideal,2019_Mar_17_1921,Face-Threshold,3.0.4,None,
763,4,0.0020094634240990783,0,0,Schematic,ideal,2019_Mar_17_1921,Face-Threshold,3.0.4,None,
764,4,0.0029900113644216186,1,0,Schematic,ideal,2019_Mar_17_1921,Face-Threshold,3.0.4,None,
765,4,0.0024070694794463,1,0,Schematic,ideal,2019_Mar_17_1921,Face-Threshold,3.0.4,None,
766,4,0.0018167823006506878,1,0,Schematic,ideal,2019_Mar_17_1921,Face-Threshold,3.0.4,None,
767,4,0.0012181575746926798,0,0,Schematic,ideal,2019_Mar_17_1921,Face-Threshold,3.0.4,None,
768,4,0.002215406127161479,1,0,Schematic,ideal,2019_Mar_17_1921,Face-Threshold,3.0.4,None,
769,4,0.0016244884050323205,1,0,Schematic,ideal,2019_Mar_17_1921,Face-Threshold,3.0.4,None,
770,4,0.001024938527751873,1,0,Schematic,ideal,2019_Mar_17_1921,Face-Threshold,3.0.4,None,
771,4,0.0004157362212913185,0,0,Schematic,ideal,2019_Mar_17_1921,Face-Threshold,3.0.4,None,
772,4,0.0014325443624865764,0,0,Schematic,ideal,2019_Mar_17_1921,Face-Threshold,3.0.4,None,
773,4,0.0024176431455473213,1,0,Schematic,ideal,2019_Mar_17_1921,Face-Threshold,3.0.4,None,
774,4,0.0018333884367064956,0,0,Schematic,ideal,2019_Mar_17_1921,Face-Threshold,3.0.4,None,
775,4,0.002805204474227052,0,0,Schematic,ideal,2019_Mar_17_1921,Face-Threshold,3.0.4,None,
776,4,0.003752219783921762,1,0,Schematic,ideal,2019_Mar_17_1921,Face-Threshold,3.0.4,None,
777,4,0.003187224500546426,1,0,Schematic,ideal,2019_Mar_17_1921,Face-Threshold,3.0.4,None,
778,4,0.002616291848030805,1,0,Schematic,ideal,2019_Mar_17_1921,Face-Threshold,3.0.4,None,
779,4,0.0020384901308260206,1,0,Schematic,ideal,2019_Mar_17_1921,Face-Threshold,3.0.4,None,
780,4,0.0014528670143989508,0,0,Schematic,ideal,2019_Mar_17_1921,Face-Threshold,3.0.4,None,
781,4,0.002427874106123329,1,0,Schematic,ideal,2019_Mar_17_1921,Face-Threshold,3.0.4,None,
782,4,0.0018495283266797835,1,0,Schematic,ideal,2019_Mar_17_1921,Face-Threshold,3.0.4,None,
783,4,0.0012630762749172852,0,0,Schematic,ideal,2019_Mar_17_1921,Face-Threshold,3.0.4,None,
784,4,0.002239913736564958,0,0,Schematic,ideal,2019_Mar_17_1921,Face-Threshold,3.0.4,None,
785,4,0.0031896044815887814,1,0,Schematic,ideal,2019_Mar_17_1921,Face-Threshold,3.0.4,None,
786,4,0.002624380083015354,0,0,Schematic,ideal,2019_Mar_17_1921,Face-Threshold,3.0.4,None,
787,4,0.0035626218398392973,1,0,Schematic,ideal,2019_Mar_17_1921,Face-Threshold,3.0.4,None,
788,4,0.003003271359540427,1,0,Schematic,ideal,2019_Mar_17_1921,Face-Threshold,3.0.4,None,
789,4,0.0024377748637860464,1,0,Schematic,ideal,2019_Mar_17_1921,Face-Threshold,3.0.4,None,
790,4,0.001865218226690779,1,0,Schematic,ideal,2019_Mar_17_1921,Face-Threshold,3.0.4,None,
791,4,0.0012846663227685795,0,0,Schematic,ideal,2019_Mar_17_1921,Face-Threshold,3.0.4,None,
792,4,0.002251612697129035,0,0,Schematic,ideal,2019_Mar_17_1921,Face-Threshold,3.0.4,None,
793,4,0.003191815106355078,0,0,Schematic,ideal,2019_Mar_17_1921,Face-Threshold,3.0.4,None,
794,4,0.004109757253254798,1,0,Schematic,ideal,2019_Mar_17_1921,Face-Threshold,3.0.4,None,
795,4,0.0035611113971762975,1,0,Schematic,ideal,2019_Mar_17_1921,Face-Threshold,3.0.4,None,
796,4,0.0030072710522106583,1,0,Schematic,ideal,2019_Mar_17_1921,Face-Threshold,3.0.4,None,
797,4,0.002447357366920422,1,0,Schematic,ideal,2019_Mar_17_1921,Face-Threshold,3.0.4,None,
798,4,0.0018804736880110307,1,0,Schematic,ideal,2019_Mar_17_1921,Face-Threshold,3.0.4,None,
799,4,0.0013057028152861916,1,0,Schematic,ideal,2019_Mar_17_1921,Face-Threshold,3.0.4,None,
800,4,0.000722104173219551,0,0,Schematic,ideal,2019_Mar_17_1921,Face-Threshold,3.0.4,None,
801,4,0.0016954263882517084,1,0,Schematic,ideal,2019_Mar_17_1921,Face-Threshold,3.0.4,None,
802,4,0.0011197329612265272,1,0,Schematic,ideal,2019_Mar_17_1921,Face-Threshold,3.0.4,None,
803,4,0.0005349360213500742,0,0,Schematic,ideal,2019_Mar_17_1921,Face-Threshold,3.0.4,None,
804,4,0.001510681182727125,1,0,Schematic,ideal,2019_Mar_17_1921,Face-Threshold,3.0.4,None,
805,4,0.0009339744431310915,0,0,Schematic,ideal,2019_Mar_17_1921,Face-Threshold,3.0.4,None,
806,4,0.0018953095939062692,1,0,Schematic,ideal,2019_Mar_17_1921,Face-Threshold,3.0.4,None,
807,4,0.0013262042050888878,1,0,Schematic,ideal,2019_Mar_17_1921,Face-Threshold,3.0.4,None,
808,4,0.0007483942175749436,0,0,Schematic,ideal,2019_Mar_17_1921,Face-Threshold,3.0.4,None,
809,4,0.00171198909401582,0,0,Schematic,ideal,2019_Mar_17_1921,Face-Threshold,3.0.4,None,
810,4,0.0026469844026338896,0,0,Schematic,ideal,2019_Mar_17_1921,Face-Threshold,3.0.4,None,
811,4,0.0035578316951994093,1,0,Schematic,ideal,2019_Mar_17_1921,Face-Threshold,3.0.4,None,
812,4,0.0030146889029131763,1,0,Schematic,ideal,2019_Mar_17_1921,Face-Threshold,3.0.4,None,
813,4,0.002465612806338724,1,0,Schematic,ideal,2019_Mar_17_1921,Face-Threshold,3.0.4,None,
814,4,0.00190974019422252,1,0,Schematic,ideal,2019_Mar_17_1921,Face-Threshold,3.0.4,None,
815,4,0.0013461881700691514,1,0,Schematic,ideal,2019_Mar_17_1921,Face-Threshold,3.0.4,None,
816,4,0.0007740514800488318,1,0,Schematic,ideal,2019_Mar_17_1921,Face-Threshold,3.0.4,None,
817,4,0.00019239975052831593,0,0,Schematic,ideal,2019_Mar_17_1921,Face-Threshold,3.0.4,None,
818,4,0.0011636418483981226,1,0,Schematic,ideal,2019_Mar_17_1921,Face-Threshold,3.0.4,None,
819,4,0.0005903186224178736,0,0,Schematic,ideal,2019_Mar_17_1921,Face-Threshold,3.0.4,None,
820,4,0.001546769097211076,1,0,Schematic,ideal,2019_Mar_17_1921,Face-Threshold,3.0.4,None,
821,4,0.0009812884890387785,1,0,Schematic,ideal,2019_Mar_17_1921,Face-Threshold,3.0.4,None,
822,4,0.00040669190089165363,0,0,Schematic,ideal,2019_Mar_17_1921,Face-Threshold,3.0.4,None,
823,4,0.0013656716528120394,1,0,Schematic,ideal,2019_Mar_17_1921,Face-Threshold,3.0.4,None,
824,4,0.0007990963163516107,1,0,Schematic,ideal,2019_Mar_17_1921,Face-Threshold,3.0.4,None,
825,4,0.00022314021718433663,1,0,Schematic,ideal,2019_Mar_17_1921,Face-Threshold,3.0.4,None,
826,4,0,0,0,Schematic,ideal,2019_Mar_17_1921,Face-Threshold,3.0.4,None,
827,4,0.0006170339916401479,0,0,Schematic,ideal,2019_Mar_17_1921,Face-Threshold,3.0.4,None,
828,4,0.0015641248135249142,1,0,Schematic,ideal,2019_Mar_17_1921,Face-Threshold,3.0.4,None,
829,4,0.0010040926188170651,0,0,Schematic,ideal,2019_Mar_17_1921,Face-Threshold,3.0.4,None,
830,4,0.001937439503381433,1,0,Schematic,ideal,2019_Mar_17_1921,Face-Threshold,3.0.4,None,
831,4,0.0013846708976561484,0,0,Schematic,ideal,2019_Mar_17_1921,Face-Threshold,3.0.4,None,
832,4,0.002305060713220175,1,0,Schematic,ideal,2019_Mar_17_1921,Face-Threshold,3.0.4,None,
833,4,0.0017591104993716078,1,0,Schematic,ideal,2019_Mar_17_1921,Face-Threshold,3.0.4,None,
834,4,0.0012054237261724388,1,0,Schematic,ideal,2019_Mar_17_1921,Face-Threshold,3.0.4,None,
835,4,0.0006431261785712072,0,0,Schematic,ideal,2019_Mar_17_1921,Face-Threshold,3.0.4,None,
836,4,0.0015810415922146714,1,0,Schematic,ideal,2019_Mar_17_1921,Face-Threshold,3.0.4,None,
837,4,0.0010263522924998658,1,0,Schematic,ideal,2019_Mar_17_1921,Face-Threshold,3.0.4,None,
838,4,0.00046279606320071,1,0,Schematic,ideal,2019_Mar_17_1921,Face-Threshold,3.0.4,None,
839,4,0,0,0,Schematic,ideal,2019_Mar_17_1921,Face-Threshold,3.0.4,None,
840,4,0.0008474260161797642,0,0,Schematic,ideal,2019_Mar_17_1921,Face-Threshold,3.0.4,None,
841,4,0.0017740085109755888,0,0,Schematic,ideal,2019_Mar_17_1921,Face-Threshold,3.0.4,None,
842,4,0.002673610485418698,1,0,Schematic,ideal,2019_Mar_17_1921,Face-Threshold,3.0.4,None,
843,4,0.002139096044986466,1,0,Schematic,ideal,2019_Mar_17_1921,Face-Threshold,3.0.4,None,
844,4,0.0015975335907898458,0,0,Schematic,ideal,2019_Mar_17_1921,Face-Threshold,3.0.4,None,
845,4,0.002498775349611293,1,0,Schematic,ideal,2019_Mar_17_1921,Face-Threshold,3.0.4,None,
846,4,0.00196367413268439,1,0,Schematic,ideal,2019_Mar_17_1921,Face-Threshold,3.0.4,None,
847,4,0.0014212783669297901,0,0,Schematic,ideal,2019_Mar_17_1921,Face-Threshold,3.0.4,None,
848,4,0.0023242946997518166,0,0,Schematic,ideal,2019_Mar_17_1921,Face-Threshold,3.0.4,None,
849,4,0.003203100984928986,0,0,Schematic,ideal,2019_Mar_17_1921,Face-Threshold,3.0.4,None,
850,4,0.004061620420375278,0,0,Schematic,ideal,2019_Mar_17_1921,Face-Threshold,3.0.4,None,
851,4,0.0049035719618502616,0,0,Schematic,ideal,2019_Mar_17_1921,Face-Threshold,3.0.4,None,
852,4,0.005732503320725446,0,0,Schematic,ideal,2019_Mar_17_1921,Face-Threshold,3.0.4,None,
853,4,0.006620251898263707,1,0,Schematic,ideal,2019_Mar_17_1921,Face-Threshold,3.0.4,None,
854,4,0.006102996090003088,0,0,Schematic,ideal,2019_Mar_17_1921,Face-Threshold,3.0.4,None,
855,4,0.006985418425423384,1,0,Schematic,ideal,2019_Mar_17_1921,Face-Threshold,3.0.4,None,
856,4,0.006470276483118209,1,0,Schematic,ideal,2019_Mar_17_1921,Face-Threshold,3.0.4,None,
857,4,0.00595466741750611,1,0,Schematic,ideal,2019_Mar_17_1921,Face-Threshold,3.0.4,None,
858,4,0.005437788306576041,1,0,Schematic,ideal,2019_Mar_17_1921,Face-Threshold,3.0.4,None,
859,4,0.004918833198207295,1,0,Schematic,ideal,2019_Mar_17_1921,Face-Threshold,3.0.4,None,
860,4,0.004418854074764,0,0,Schematic,ideal,2019_Mar_17_1921,Face-Threshold,3.0.4,None,
861,4,0.005244694113189008,1,0,Schematic,ideal,2019_Mar_17_1921,Face-Threshold,3.0.4,None,
862,4,0.004726409074326976,1,0,Schematic,ideal,2019_Mar_17_1921,Face-Threshold,3.0.4,None,
863,4,0.004226775607462152,0,0,Schematic,ideal,2019_Mar_17_1921,Face-Threshold,3.0.4,None,
864,4,0.005052482716834783,0,0,Schematic,ideal,2019_Mar_17_1921,Face-Threshold,3.0.4,None,
865,4,0.005933931884538057,0,0,Schematic,ideal,2019_Mar_17_1921,Face-Threshold,3.0.4,None,
866,4,0.006805336851546551,1,0,Schematic,ideal,2019_Mar_17_1921,Face-Threshold,3.0.4,None,
867,4,0.0062970398073326495,0,0,Schematic,ideal,2019_Mar_17_1921,Face-Threshold,3.0.4,None,
868,4,0.007163655617227926,1,0,Schematic,ideal,2019_Mar_17_1921,Face-Threshold,3.0.4,None,
869,4,0.006657196648343022,1,0,Schematic,ideal,2019_Mar_17_1921,Face-Threshold,3.0.4,None,
870,4,0.006150574603396242,1,0,Schematic,ideal,2019_Mar_17_1921,Face-Threshold,3.0.4,None,
871,4,0.005643013310382916,1,0,Schematic,ideal,2019_Mar_17_1921,Face-Threshold,3.0.4,None,
872,4,0.00513373455490046,1,0,Schematic,ideal,2019_Mar_17_1921,Face-Threshold,3.0.4,None,
873,4,0.004621955762311003,1,0,Schematic,ideal,2019_Mar_17_1921,Face-Threshold,3.0.4,None,
874,4,0.004128440495421937,1,0,Schematic,ideal,2019_Mar_17_1921,Face-Threshold,3.0.4,None,
875,4,0.0036310778295441937,1,0,Schematic,ideal,2019_Mar_17_1921,Face-Threshold,3.0.4,None,
876,4,0.0031291540542759955,1,0,Schematic,ideal,2019_Mar_17_1921,Face-Threshold,3.0.4,None,
877,4,0.002621943264514204,0,0,Schematic,ideal,2019_Mar_17_1921,Face-Threshold,3.0.4,None,
878,4,0.003463789430642572,1,0,Schematic,ideal,2019_Mar_17_1921,Face-Threshold,3.0.4,None,
879,4,0.002961678256473199,1,0,Schematic,ideal,2019_Mar_17_1921,Face-Threshold,3.0.4,None,
880,4,0.002454054404206707,0,0,Schematic,ideal,2019_Mar_17_1921,Face-Threshold,3.0.4,None,
881,4,0.0032969497216409627,1,0,Schematic,ideal,2019_Mar_17_1921,Face-Threshold,3.0.4,None,
882,4,0.0027945729840932465,0,0,Schematic,ideal,2019_Mar_17_1921,Face-Threshold,3.0.4,None,
883,4,0.0036280146529143464,1,0,Schematic,ideal,2019_Mar_17_1921,Face-Threshold,3.0.4,None,
884,4,0.0031305285623279833,1,0,Schematic,ideal,2019_Mar_17_1921,Face-Threshold,3.0.4,None,
885,4,0.0026278089182858455,1,0,Schematic,ideal,2019_Mar_17_1921,Face-Threshold,3.0.4,None,
886,4,0.0021191282810659184,0,0,Schematic,ideal,2019_Mar_17_1921,Face-Threshold,3.0.4,None,
887,4,0.002964496284991347,1,0,Schematic,ideal,2019_Mar_17_1921,Face-Threshold,3.0.4,None,
888,4,0.0024613571772944542,0,0,Schematic,ideal,2019_Mar_17_1921,Face-Threshold,3.0.4,None,
889,4,0.003296781699645146,1,0,Schematic,ideal,2019_Mar_17_1921,Face-Threshold,3.0.4,None,
890,4,0.0027988236777407027,1,0,Schematic,ideal,2019_Mar_17_1921,Face-Threshold,3.0.4,None,
891,4,0.0022951893007642776,0,0,Schematic,ideal,2019_Mar_17_1921,Face-Threshold,3.0.4,None,
892,4,0.0031317903561030036,0,0,Schematic,ideal,2019_Mar_17_1921,Face-Threshold,3.0.4,None,
893,4,0.003949148143089443,1,0,Schematic,ideal,2019_Mar_17_1921,Face-Threshold,3.0.4,None,
894,4,0.003460511325156901,1,0,Schematic,ideal,2019_Mar_17_1921,Face-Threshold,3.0.4,None,
895,4,0.0029671768023727396,1,0,Schematic,ideal,2019_Mar_17_1921,Face-Threshold,3.0.4,None,
896,4,0.002468442808568838,1,0,Schematic,ideal,2019_Mar_17_1921,Face-Threshold,3.0.4,None,
897,4,0.0019635933158516083,1,0,Schematic,ideal,2019_Mar_17_1921,Face-Threshold,3.0.4,None,
898,4,0.0014518960740079745,1,0,Schematic,ideal,2019_Mar_17_1921,Face-Threshold,3.0.4,None,
899,4,0.000932600590351218,1,0,Schematic,ideal,2019_Mar_17_1921,Face-Threshold,3.0.4,None,
900,4,0.0004049360418518777,1,0,Schematic,ideal,2019_Mar_17_1921,Face-Threshold,3.0.4,None,
901,4,0,1,0,Schematic,ideal,2019_Mar_17_1921,Face-Threshold,3.0.4,None,
902,4,0,0,0,Schematic,ideal,2019_Mar_17_1921,Face-Threshold,3.0.4,None,
903,4,0.00023596754915106155,0,0,Schematic,ideal,2019_Mar_17_1921,Face-Threshold,3.0.4,None,
904,4,0.0011191541381394,1,0,Schematic,ideal,2019_Mar_17_1921,Face-Threshold,3.0.4,None,
905,4,0.0005974646110168957,0,0,Schematic,ideal,2019_Mar_17_1921,Face-Threshold,3.0.4,None,
906,4,0.0014676393917067987,0,0,Schematic,ideal,2019_Mar_17_1921,Face-Threshold,3.0.4,None,
907,4,0.002311933444687053,1,0,Schematic,ideal,2019_Mar_17_1921,Face-Threshold,3.0.4,None,
908,4,0.0018107587028198258,0,0,Schematic,ideal,2019_Mar_17_1921,Face-Threshold,3.0.4,None,
909,4,0.002644275629978321,1,0,Schematic,ideal,2019_Mar_17_1921,Face-Threshold,3.0.4,None,
910,4,0.002148787134751251,0,0,Schematic,ideal,2019_Mar_17_1921,Face-Threshold,3.0.4,None,
911,4,0.0029721448102754122,1,0,Schematic,ideal,2019_Mar_17_1921,Face-Threshold,3.0.4,None,
912,4,0.0024819904730902786,1,0,Schematic,ideal,2019_Mar_17_1921,Face-Threshold,3.0.4,None,
913,4,0.001985852711680225,0,0,Schematic,ideal,2019_Mar_17_1921,Face-Threshold,3.0.4,None,
914,4,0.0028106257157063386,1,0,Schematic,ideal,2019_Mar_17_1921,Face-Threshold,3.0.4,None,
915,4,0.002319962198380654,1,0,Schematic,ideal,2019_Mar_17_1921,Face-Threshold,3.0.4,None,
916,4,0.0018231038487308004,1,0,Schematic,ideal,2019_Mar_17_1921,Face-Threshold,3.0.4,None,
917,4,0.0013193410551949336,1,0,Schematic,ideal,2019_Mar_17_1921,Face-Threshold,3.0.4,None,
918,4,0.0008079461263478804,0,0,Schematic,ideal,2019_Mar_17_1921,Face-Threshold,3.0.4,None,
919,4,0.0016605145612448302,1,0,Schematic,ideal,2019_Mar_17_1921,Face-Threshold,3.0.4,None,
920,4,0.0011557478267755217,0,0,Schematic,ideal,2019_Mar_17_1921,Face-Threshold,3.0.4,None,
921,4,0.0019965703776770316,1,0,Schematic,ideal,2019_Mar_17_1921,Face-Threshold,3.0.4,None,
922,4,0.0014980591939846577,0,0,Schematic,ideal,2019_Mar_17_1921,Face-Threshold,3.0.4,None,
923,4,0.0023277715800764653,1,0,Schematic,ideal,2019_Mar_17_1921,Face-Threshold,3.0.4,None,
924,4,0.0018351547541084479,1,0,Schematic,ideal,2019_Mar_17_1921,Face-Threshold,3.0.4,None,
925,4,0.0013357124088325123,1,0,Schematic,ideal,2019_Mar_17_1921,Face-Threshold,3.0.4,None,
926,4,0.0008287288943131799,1,0,Schematic,ideal,2019_Mar_17_1921,Face-Threshold,3.0.4,None,
927,4,0.00031346888513639204,1,0,Schematic,ideal,2019_Mar_17_1921,Face-Threshold,3.0.4,None,
928,4,0,0,0,Schematic,ideal,2019_Mar_17_1921,Face-Threshold,3.0.4,None,
929,4,0.0006652537228030719,1,0,Schematic,ideal,2019_Mar_17_1921,Face-Threshold,3.0.4,None,
930,4,0.0001485672757173817,1,0,Schematic,ideal,2019_Mar_17_1921,Face-Threshold,3.0.4,None,
931,4,0,0,0,Schematic,ideal,2019_Mar_17_1921,Face-Threshold,3.0.4,None,
932,4,0.0005017688909267903,0,0,Schematic,ideal,2019_Mar_17_1921,Face-Threshold,3.0.4,None,
933,4,0.001351723541244798,1,0,Schematic,ideal,2019_Mar_17_1921,Face-Threshold,3.0.4,None,
934,4,0.0008490746730305809,0,0,Schematic,ideal,2019_Mar_17_1921,Face-Threshold,3.0.4,None,
935,4,0.0016869619413128478,0,0,Schematic,ideal,2019_Mar_17_1921,Face-Threshold,3.0.4,None,
936,4,0.0025008504003831145,1,0,Schematic,ideal,2019_Mar_17_1921,Face-Threshold,3.0.4,None,
937,4,0.0020172225347649397,0,0,Schematic,ideal,2019_Mar_17_1921,Face-Threshold,3.0.4,None,
938,4,0.0028211123793372983,0,0,Schematic,ideal,2019_Mar_17_1921,Face-Threshold,3.0.4,None,
939,4,0.0036057384333132436,1,0,Schematic,ideal,2019_Mar_17_1921,Face-Threshold,3.0.4,None,
940,4,0.0031372226804715075,1,0,Schematic,ideal,2019_Mar_17_1921,Face-Threshold,3.0.4,None,
941,4,0.0026638172680752414,1,0,Schematic,ideal,2019_Mar_17_1921,Face-Threshold,3.0.4,None,
942,4,0.0021848747914837152,1,0,Schematic,ideal,2019_Mar_17_1921,Face-Threshold,3.0.4,None,
943,4,0.001699733810999693,0,0,Schematic,ideal,2019_Mar_17_1921,Face-Threshold,3.0.4,None,
944,4,0.0025067715576749805,1,0,Schematic,ideal,2019_Mar_17_1921,Face-Threshold,3.0.4,None,
945,4,0.0020271724782217615,1,0,Schematic,ideal,2019_Mar_17_1921,Face-Threshold,3.0.4,None,
946,4,0.0015411743828346314,1,0,Schematic,ideal,2019_Mar_17_1921,Face-Threshold,3.0.4,None,
947,4,0.001048098088251792,0,0,Schematic,ideal,2019_Mar_17_1921,Face-Threshold,3.0.4,None,
948,4,0.0018696276449141624,0,0,Schematic,ideal,2019_Mar_17_1921,Face-Threshold,3.0.4,None,
949,4,0.0026683080834640216,1,0,Schematic,ideal,2019_Mar_17_1921,Face-Threshold,3.0.4,None,
950,4,0.002193328279860518,1,0,Schematic,ideal,2019_Mar_17_1921,Face-Threshold,3.0.4,None,
951,4,0.0017122160389786423,0,0,Schematic,ideal,2019_Mar_17_1921,Face-Threshold,3.0.4,None,
952,4,0.002512519420947268,1,0,Schematic,ideal,2019_Mar_17_1921,Face-Threshold,3.0.4,None,
953,4,0.002036881495885934,0,0,Schematic,ideal,2019_Mar_17_1921,Face-Threshold,3.0.4,None,
954,4,0.0028274363814004277,1,0,Schematic,ideal,2019_Mar_17_1921,Face-Threshold,3.0.4,None,
955,4,0.0023569474697871517,0,0,Schematic,ideal,2019_Mar_17_1921,Face-Threshold,3.0.4,None,
956,4,0.0031383070600898844,1,0,Schematic,ideal,2019_Mar_17_1921,Face-Threshold,3.0.4,None,
957,4,0.00267265107584741,0,0,Schematic,ideal,2019_Mar_17_1921,Face-Threshold,3.0.4,None,
958,4,0.0034453523280498777,0,0,Schematic,ideal,2019_Mar_17_1921,Face-Threshold,3.0.4,None,
959,4,0.00420172841041222,0,0,Schematic,ideal,2019_Mar_17_1921,Face-Threshold,3.0.4,None,
960,4,0.004944673323373561,1,0,Schematic,ideal,2019_Mar_17_1921,Face-Threshold,3.0.4,None,
961,4,0.004498230029099437,1,0,Schematic,ideal,2019_Mar_17_1921,Face-Threshold,3.0.4,None,
962,4,0.00404881717043909,1,0,Schematic,ideal,2019_Mar_17_1921,Face-Threshold,3.0.4,None,
963,4,0.0035958482267373637,1,0,Schematic,ideal,2019_Mar_17_1921,Face-Threshold,3.0.4,None,
964,4,0.0031387279614687458,1,0,Schematic,ideal,2019_Mar_17_1921,Face-Threshold,3.0.4,None,
965,4,0.002676850924146157,0,0,Schematic,ideal,2019_Mar_17_1921,Face-Threshold,3.0.4,None,
966,4,0.003443266376155718,1,0,Schematic,ideal,2019_Mar_17_1921,Face-Threshold,3.0.4,None,
967,4,0.0029858643139857866,0,0,Schematic,ideal,2019_Mar_17_1921,Face-Threshold,3.0.4,None,
968,4,0.0037442372674062474,1,0,Schematic,ideal,2019_Mar_17_1921,Face-Threshold,3.0.4,None,
969,4,0.0032910158447093663,1,0,Schematic,ideal,2019_Mar_17_1921,Face-Threshold,3.0.4,None,
970,4,0.0028332670582671415,0,0,Schematic,ideal,2019_Mar_17_1921,Face-Threshold,3.0.4,None,
971,4,0.0035925176369669964,1,0,Schematic,ideal,2019_Mar_17_1921,Face-Threshold,3.0.4,None,
972,4,0.003139071985976516,0,0,Schematic,ideal,2019_Mar_17_1921,Face-Threshold,3.0.4,None,
973,4,0.0038905755383066287,1,0,Schematic,ideal,2019_Mar_17_1921,Face-Threshold,3.0.4,None,
974,4,0.003441144865567791,0,0,Schematic,ideal,2019_Mar_17_1921,Face-Threshold,3.0.4,None,
975,4,0.004185389453352728,0,0,Schematic,ideal,2019_Mar_17_1921,Face-Threshold,3.0.4,None,
976,4,0.0049164498482816565,1,0,Schematic,ideal,2019_Mar_17_1921,Face-Threshold,3.0.4,None,
977,4,0.004477153659116884,0,0,Schematic,ideal,2019_Mar_17_1921,Face-Threshold,3.0.4,None,
978,4,0.005202538367441445,1,0,Schematic,ideal,2019_Mar_17_1921,Face-Threshold,3.0.4,None,
979,4,0.0047469320127685455,1,0,Schematic,ideal,2019_Mar_17_1921,Face-Threshold,3.0.4,None,
980,4,0.004307815678487648,1,0,Schematic,ideal,2019_Mar_17_1921,Face-Threshold,3.0.4,None,
981,4,0.003865552166196773,1,0,Schematic,ideal,2019_Mar_17_1921,Face-Threshold,3.0.4,None,
982,4,0.003419573017353683,0,0,Schematic,ideal,2019_Mar_17_1921,Face-Threshold,3.0.4,None,
983,4,0.004158138750766205,1,0,Schematic,ideal,2019_Mar_17_1921,Face-Threshold,3.0.4,None,
984,4,0.0037158724932602194,1,0,Schematic,ideal,2019_Mar_17_1921,Face-Threshold,3.0.4,None,
985,4,0.0032697089959040637,1,0,Schematic,ideal,2019_Mar_17_1921,Face-Threshold,3.0.4,None,
986,4,0.0028190704942193667,0,0,Schematic,ideal,2019_Mar_17_1921,Face-Threshold,3.0.4,None,
987,4,0.0035665426752250484,1,0,Schematic,ideal,2019_Mar_17_1921,Face-Threshold,3.0.4,None,
988,4,0.0031201318231532382,1,0,Schematic,ideal,2019_Mar_17_1921,Face-Threshold,3.0.4,None,
989,4,0.0026690647339394635,1,0,Schematic,ideal,2019_Mar_17_1921,Face-Threshold,3.0.4,None,
990,4,0.002212751908094668,1,0,Schematic,ideal,2019_Mar_17_1921,Face-Threshold,3.0.4,None,
991,4,0.0017505911281675557,0,0,Schematic,ideal,2019_Mar_17_1921,Face-Threshold,3.0.4,None,
992,4,0.0025192605890512754,1,0,Schematic,ideal,2019_Mar_17_1921,Face-Threshold,3.0.4,None,
993,4,0.0020622757663336655,0,0,Schematic,ideal,2019_Mar_17_1921,Face-Threshold,3.0.4,None,
994,4,0.002821744500759893,1,0,Schematic,ideal,2019_Mar_17_1921,Face-Threshold,3.0.4,None,
995,4,0.0023696354128774355,0,0,Schematic,ideal,2019_Mar_17_1921,Face-Threshold,3.0.4,None,
996,4,0.003120413619398521,1,0,Schematic,ideal,2019_Mar_17_1921,Face-Threshold,3.0.4,None,
997,4,0.0026728883561826233,0,0,Schematic,ideal,2019_Mar_17_1921,Face-Threshold,3.0.4,None,
998,4,0.003415471601789566,1,0,Schematic,ideal,2019_Mar_17_1921,Face-Threshold,3.0.4,None,
999,4,0.0029722461227147945,1,0,Schematic,ideal,2019_Mar_17_1921,Face-Threshold,3.0.4,None,
