.thisTrialN,.stepSize,.intensity,.response,key_resp_2.rt,Face,participant,date,expName,psychopyVersion,frameRate,
0,4,0.1,1,0,Real,ideal,2019_Mar_17_1935,Face-Threshold,3.0.4,59.88807661207037,
1,4,0.10421755600317727,1,0,Real,ideal,2019_Mar_17_1935,Face-Threshold,3.0.4,59.88807661207037,
2,4,0.1005781647892013,1,0,Real,ideal,2019_Mar_17_1935,Face-Threshold,3.0.4,59.88807661207037,
3,4,0.0969168256690019,1,0,Real,ideal,2019_Mar_17_1935,Face-Threshold,3.0.4,59.88807661207037,
4,4,0.09312992937177045,1,0,Real,ideal,2019_Mar_17_1935,Face-Threshold,3.0.4,59.88807661207037,
5,4,0.08932630237800723,1,0,Real,ideal,2019_Mar_17_1935,Face-Threshold,3.0.4,59.88807661207037,
6,4,0.0855098726083369,1,0,Real,ideal,2019_Mar_17_1935,Face-Threshold,3.0.4,59.88807661207037,
7,4,0.08151448297001997,1,0,Real,ideal,2019_Mar_17_1935,Face-Threshold,3.0.4,59.88807661207037,
8,4,0.07758575824291539,1,0,Real,ideal,2019_Mar_17_1935,Face-Threshold,3.0.4,59.88807661207037,
9,4,0.07356406073199227,1,0,Real,ideal,2019_Mar_17_1935,Face-Threshold,3.0.4,59.88807661207037,
10,4,0.06951344102506699,1,0,Real,ideal,2019_Mar_17_1935,Face-Threshold,3.0.4,59.88807661207037,
11,4,0.06545436178752864,0,0,Real,ideal,2019_Mar_17_1935,Face-Threshold,3.0.4,59.88807661207037,
12,4,0.07280875005132603,1,0,Real,ideal,2019_Mar_17_1935,Face-Threshold,3.0.4,59.88807661207037,
13,4,0.06887510580982509,1,0,Real,ideal,2019_Mar_17_1935,Face-Threshold,3.0.4,59.88807661207037,
14,4,0.06492360413398673,1,0,Real,ideal,2019_Mar_17_1935,Face-Threshold,3.0.4,59.88807661207037,
15,4,0.06094564144316615,1,0,Real,ideal,2019_Mar_17_1935,Face-Threshold,3.0.4,59.88807661207037,
16,4,0.05693723065128366,1,0,Real,ideal,2019_Mar_17_1935,Face-Threshold,3.0.4,59.88807661207037,
17,4,0.052815039483651474,1,0,Real,ideal,2019_Mar_17_1935,Face-Threshold,3.0.4,59.88807661207037,
18,4,0.048717778908032944,1,0,Real,ideal,2019_Mar_17_1935,Face-Threshold,3.0.4,59.88807661207037,
19,4,0.04460479582861089,1,0,Real,ideal,2019_Mar_17_1935,Face-Threshold,3.0.4,59.88807661207037,
20,4,0.04046557713877235,1,0,Real,ideal,2019_Mar_17_1935,Face-Threshold,3.0.4,59.88807661207037,
21,4,0.03634113281478876,1,0,Real,ideal,2019_Mar_17_1935,Face-Threshold,3.0.4,59.88807661207037,
22,4,0.03207580678322661,0,0,Real,ideal,2019_Mar_17_1935,Face-Threshold,3.0.4,59.88807661207037,
23,4,0.039160338746583916,1,0,Real,ideal,2019_Mar_17_1935,Face-Threshold,3.0.4,59.88807661207037,
24,4,0.03513369024656174,1,0,Real,ideal,2019_Mar_17_1935,Face-Threshold,3.0.4,59.88807661207037,
25,4,0.030939328208554176,1,0,Real,ideal,2019_Mar_17_1935,Face-Threshold,3.0.4,59.88807661207037,
26,4,0.026908837717667528,0,0,Real,ideal,2019_Mar_17_1935,Face-Threshold,3.0.4,59.88807661207037,
27,4,0.03410796945149559,1,0,Real,ideal,2019_Mar_17_1935,Face-Threshold,3.0.4,59.88807661207037,
28,4,0.030139208809216778,1,0,Real,ideal,2019_Mar_17_1935,Face-Threshold,3.0.4,59.88807661207037,
29,4,0.02624513319819942,0,0,Real,ideal,2019_Mar_17_1935,Face-Threshold,3.0.4,59.88807661207037,
30,4,0.03325472933457156,0,0,Real,ideal,2019_Mar_17_1935,Face-Threshold,3.0.4,59.88807661207037,
31,4,0.039661932828342614,1,0,Real,ideal,2019_Mar_17_1935,Face-Threshold,3.0.4,59.88807661207037,
32,4,0.03595366696277234,1,0,Real,ideal,2019_Mar_17_1935,Face-Threshold,3.0.4,59.88807661207037,
33,4,0.03211713518572175,1,0,Real,ideal,2019_Mar_17_1935,Face-Threshold,3.0.4,59.88807661207037,
34,4,0.028378752130379062,1,0,Real,ideal,2019_Mar_17_1935,Face-Threshold,3.0.4,59.88807661207037,
35,4,0.02466093655395063,1,0,Real,ideal,2019_Mar_17_1935,Face-Threshold,3.0.4,59.88807661207037,
36,4,0.020957380567526412,1,0,Real,ideal,2019_Mar_17_1935,Face-Threshold,3.0.4,59.88807661207037,
37,4,0.01729764576805083,0,0,Real,ideal,2019_Mar_17_1935,Face-Threshold,3.0.4,59.88807661207037,
38,4,0.0237952932370753,1,0,Real,ideal,2019_Mar_17_1935,Face-Threshold,3.0.4,59.88807661207037,
39,4,0.020142928025352988,0,0,Real,ideal,2019_Mar_17_1935,Face-Threshold,3.0.4,59.88807661207037,
40,4,0.02641688569889597,1,0,Real,ideal,2019_Mar_17_1935,Face-Threshold,3.0.4,59.88807661207037,
41,4,0.022804717031491464,0,0,Real,ideal,2019_Mar_17_1935,Face-Threshold,3.0.4,59.88807661207037,
42,4,0.02872264297972142,1,0,Real,ideal,2019_Mar_17_1935,Face-Threshold,3.0.4,59.88807661207037,
43,4,0.02526300395551298,1,0,Real,ideal,2019_Mar_17_1935,Face-Threshold,3.0.4,59.88807661207037,
44,4,0.021694872677998148,1,0,Real,ideal,2019_Mar_17_1935,Face-Threshold,3.0.4,59.88807661207037,
45,4,0.018265866016222418,1,0,Real,ideal,2019_Mar_17_1935,Face-Threshold,3.0.4,59.88807661207037,
46,4,0.014872097831104769,1,0,Real,ideal,2019_Mar_17_1935,Face-Threshold,3.0.4,59.88807661207037,
47,4,0.011512632062373088,1,0,Real,ideal,2019_Mar_17_1935,Face-Threshold,3.0.4,59.88807661207037,
48,4,0.008176507921407672,0,0,Real,ideal,2019_Mar_17_1935,Face-Threshold,3.0.4,59.88807661207037,
49,4,0.014024587629131516,1,0,Real,ideal,2019_Mar_17_1935,Face-Threshold,3.0.4,59.88807661207037,
50,4,0.010704632316247006,0,0,Real,ideal,2019_Mar_17_1935,Face-Threshold,3.0.4,59.88807661207037,
51,4,0.01637174470111967,0,0,Real,ideal,2019_Mar_17_1935,Face-Threshold,3.0.4,59.88807661207037,
52,4,0.02214162210749883,1,0,Real,ideal,2019_Mar_17_1935,Face-Threshold,3.0.4,59.88807661207037,
53,4,0.018885493173458556,1,0,Real,ideal,2019_Mar_17_1935,Face-Threshold,3.0.4,59.88807661207037,
54,4,0.015713362865571207,1,0,Real,ideal,2019_Mar_17_1935,Face-Threshold,3.0.4,59.88807661207037,
55,4,0.012459928559946098,1,0,Real,ideal,2019_Mar_17_1935,Face-Threshold,3.0.4,59.88807661207037,
56,4,0.009287517086402186,0,0,Real,ideal,2019_Mar_17_1935,Face-Threshold,3.0.4,59.88807661207037,
57,4,0.014755695217842354,1,0,Real,ideal,2019_Mar_17_1935,Face-Threshold,3.0.4,59.88807661207037,
58,4,0.011664473458289887,0,0,Real,ideal,2019_Mar_17_1935,Face-Threshold,3.0.4,59.88807661207037,
59,4,0.01691623274796046,0,0,Real,ideal,2019_Mar_17_1935,Face-Threshold,3.0.4,59.88807661207037,
60,4,0.022343430854896915,0,0,Real,ideal,2019_Mar_17_1935,Face-Threshold,3.0.4,59.88807661207037,
61,4,0.02752969462531929,1,0,Real,ideal,2019_Mar_17_1935,Face-Threshold,3.0.4,59.88807661207037,
62,4,0.02446450860443536,0,0,Real,ideal,2019_Mar_17_1935,Face-Threshold,3.0.4,59.88807661207037,
63,4,0.029428099095913776,0,0,Real,ideal,2019_Mar_17_1935,Face-Threshold,3.0.4,59.88807661207037,
64,4,0.034743244998797856,1,0,Real,ideal,2019_Mar_17_1935,Face-Threshold,3.0.4,59.88807661207037,
65,4,0.03174317721138796,1,0,Real,ideal,2019_Mar_17_1935,Face-Threshold,3.0.4,59.88807661207037,
66,4,0.028746615414340232,1,0,Real,ideal,2019_Mar_17_1935,Face-Threshold,3.0.4,59.88807661207037,
67,4,0.025826261685612348,1,0,Real,ideal,2019_Mar_17_1935,Face-Threshold,3.0.4,59.88807661207037,
68,4,0.022838856483430023,0,0,Real,ideal,2019_Mar_17_1935,Face-Threshold,3.0.4,59.88807661207037,
69,4,0.02769106922004974,1,0,Real,ideal,2019_Mar_17_1935,Face-Threshold,3.0.4,59.88807661207037,
70,4,0.02480301986393245,1,0,Real,ideal,2019_Mar_17_1935,Face-Threshold,3.0.4,59.88807661207037,
71,4,0.02196069466947026,1,0,Real,ideal,2019_Mar_17_1935,Face-Threshold,3.0.4,59.88807661207037,
72,4,0.019107708743845334,0,0,Real,ideal,2019_Mar_17_1935,Face-Threshold,3.0.4,59.88807661207037,
73,4,0.024032713160148572,1,0,Real,ideal,2019_Mar_17_1935,Face-Threshold,3.0.4,59.88807661207037,
74,4,0.021216230107231893,1,0,Real,ideal,2019_Mar_17_1935,Face-Threshold,3.0.4,59.88807661207037,
75,4,0.018454345316842133,0,0,Real,ideal,2019_Mar_17_1935,Face-Threshold,3.0.4,59.88807661207037,
76,4,0.023277561007051792,1,0,Real,ideal,2019_Mar_17_1935,Face-Threshold,3.0.4,59.88807661207037,
77,4,0.020485049609787753,1,0,Real,ideal,2019_Mar_17_1935,Face-Threshold,3.0.4,59.88807661207037,
78,4,0.01781740302758758,1,0,Real,ideal,2019_Mar_17_1935,Face-Threshold,3.0.4,59.88807661207037,
79,4,0.01515196199825114,1,0,Real,ideal,2019_Mar_17_1935,Face-Threshold,3.0.4,59.88807661207037,
80,4,0.012430025848685092,0,0,Real,ideal,2019_Mar_17_1935,Face-Threshold,3.0.4,59.88807661207037,
81,4,0.016839138631394843,1,0,Real,ideal,2019_Mar_17_1935,Face-Threshold,3.0.4,59.88807661207037,
82,4,0.014199409000517096,1,0,Real,ideal,2019_Mar_17_1935,Face-Threshold,3.0.4,59.88807661207037,
83,4,0.011606584507899503,0,0,Real,ideal,2019_Mar_17_1935,Face-Threshold,3.0.4,59.88807661207037,
84,4,0.015987942799964086,1,0,Real,ideal,2019_Mar_17_1935,Face-Threshold,3.0.4,59.88807661207037,
85,4,0.013372004935370316,1,0,Real,ideal,2019_Mar_17_1935,Face-Threshold,3.0.4,59.88807661207037,
86,4,0.010797777327789526,1,0,Real,ideal,2019_Mar_17_1935,Face-Threshold,3.0.4,59.88807661207037,
87,4,0.008321384846962751,0,0,Real,ideal,2019_Mar_17_1935,Face-Threshold,3.0.4,59.88807661207037,
88,4,0.012664953620051586,1,0,Real,ideal,2019_Mar_17_1935,Face-Threshold,3.0.4,59.88807661207037,
89,4,0.010109033895670083,1,0,Real,ideal,2019_Mar_17_1935,Face-Threshold,3.0.4,59.88807661207037,
90,4,0.007723762185698063,0,0,Real,ideal,2019_Mar_17_1935,Face-Threshold,3.0.4,59.88807661207037,
91,4,0.011970383478925525,1,0,Real,ideal,2019_Mar_17_1935,Face-Threshold,3.0.4,59.88807661207037,
92,4,0.009483823809081499,1,0,Real,ideal,2019_Mar_17_1935,Face-Threshold,3.0.4,59.88807661207037,
93,4,0.007140241143008846,0,0,Real,ideal,2019_Mar_17_1935,Face-Threshold,3.0.4,59.88807661207037,
94,4,0.011287624066183763,1,0,Real,ideal,2019_Mar_17_1935,Face-Threshold,3.0.4,59.88807661207037,
95,4,0.008883257345776108,0,0,Real,ideal,2019_Mar_17_1935,Face-Threshold,3.0.4,59.88807661207037,
96,4,0.013050804193342244,1,0,Real,ideal,2019_Mar_17_1935,Face-Threshold,3.0.4,59.88807661207037,
97,4,0.010616036742803703,0,0,Real,ideal,2019_Mar_17_1935,Face-Threshold,3.0.4,59.88807661207037,
98,4,0.014732448492634276,1,0,Real,ideal,2019_Mar_17_1935,Face-Threshold,3.0.4,59.88807661207037,
99,4,0.012374371264672598,1,0,Real,ideal,2019_Mar_17_1935,Face-Threshold,3.0.4,59.88807661207037,
100,4,0.009959160494357328,1,0,Real,ideal,2019_Mar_17_1935,Face-Threshold,3.0.4,59.88807661207037,
101,4,0.0077244866434944826,1,0,Real,ideal,2019_Mar_17_1935,Face-Threshold,3.0.4,59.88807661207037,
102,4,0.005467987989925982,1,0,Real,ideal,2019_Mar_17_1935,Face-Threshold,3.0.4,59.88807661207037,
103,4,0.0031754899671244674,1,0,Real,ideal,2019_Mar_17_1935,Face-Threshold,3.0.4,59.88807661207037,
104,4,0.0009266943444483922,1,0,Real,ideal,2019_Mar_17_1935,Face-Threshold,3.0.4,59.88807661207037,
105,4,0,0,0,Real,ideal,2019_Mar_17_1935,Face-Threshold,3.0.4,59.88807661207037,
106,4,0.0025344487188673076,1,0,Real,ideal,2019_Mar_17_1935,Face-Threshold,3.0.4,59.88807661207037,
107,4,0.0002985429507757348,0,0,Real,ideal,2019_Mar_17_1935,Face-Threshold,3.0.4,59.88807661207037,
108,4,0.004073463786081935,0,0,Real,ideal,2019_Mar_17_1935,Face-Threshold,3.0.4,59.88807661207037,
109,4,0.007632628963752067,1,0,Real,ideal,2019_Mar_17_1935,Face-Threshold,3.0.4,59.88807661207037,
110,4,0.005462430827711889,1,0,Real,ideal,2019_Mar_17_1935,Face-Threshold,3.0.4,59.88807661207037,
111,4,0.003259314958755491,1,0,Real,ideal,2019_Mar_17_1935,Face-Threshold,3.0.4,59.88807661207037,
112,4,0.0011005476932315073,0,0,Real,ideal,2019_Mar_17_1935,Face-Threshold,3.0.4,59.88807661207037,
113,4,0.0047363302101773586,1,0,Real,ideal,2019_Mar_17_1935,Face-Threshold,3.0.4,59.88807661207037,
114,4,0.002636867650650132,0,0,Real,ideal,2019_Mar_17_1935,Face-Threshold,3.0.4,59.88807661207037,
115,4,0.006158550083712411,0,0,Real,ideal,2019_Mar_17_1935,Face-Threshold,3.0.4,59.88807661207037,
116,4,0.00979467403136966,0,0,Real,ideal,2019_Mar_17_1935,Face-Threshold,3.0.4,59.88807661207037,
117,4,0.01358832069250096,0,0,Real,ideal,2019_Mar_17_1935,Face-Threshold,3.0.4,59.88807661207037,
118,4,0.017176495278444462,0,0,Real,ideal,2019_Mar_17_1935,Face-Threshold,3.0.4,59.88807661207037,
119,4,0.02097814342167477,1,0,Real,ideal,2019_Mar_17_1935,Face-Threshold,3.0.4,59.88807661207037,
120,4,0.018771499348133838,0,0,Real,ideal,2019_Mar_17_1935,Face-Threshold,3.0.4,59.88807661207037,
121,4,0.02261178828753252,1,0,Real,ideal,2019_Mar_17_1935,Face-Threshold,3.0.4,59.88807661207037,
122,4,0.020345204983175116,0,0,Real,ideal,2019_Mar_17_1935,Face-Threshold,3.0.4,59.88807661207037,
123,4,0.024174262057857887,1,0,Real,ideal,2019_Mar_17_1935,Face-Threshold,3.0.4,59.88807661207037,
124,4,0.02197593774060766,0,0,Real,ideal,2019_Mar_17_1935,Face-Threshold,3.0.4,59.88807661207037,
125,4,0.025674016905313984,1,0,Real,ideal,2019_Mar_17_1935,Face-Threshold,3.0.4,59.88807661207037,
126,4,0.023443779686471294,1,0,Real,ideal,2019_Mar_17_1935,Face-Threshold,3.0.4,59.88807661207037,
127,4,0.021257817350396793,1,0,Real,ideal,2019_Mar_17_1935,Face-Threshold,3.0.4,59.88807661207037,
128,4,0.0191129666941217,1,0,Real,ideal,2019_Mar_17_1935,Face-Threshold,3.0.4,59.88807661207037,
129,4,0.017071341595914807,1,0,Real,ideal,2019_Mar_17_1935,Face-Threshold,3.0.4,59.88807661207037,
130,4,0.015009422567212632,1,0,Real,ideal,2019_Mar_17_1935,Face-Threshold,3.0.4,59.88807661207037,
131,4,0.012915329448372509,1,0,Real,ideal,2019_Mar_17_1935,Face-Threshold,3.0.4,59.88807661207037,
132,4,0.010863193926031356,1,0,Real,ideal,2019_Mar_17_1935,Face-Threshold,3.0.4,59.88807661207037,
133,4,0.008890618376416332,0,0,Real,ideal,2019_Mar_17_1935,Face-Threshold,3.0.4,59.88807661207037,
134,4,0.01232149209276448,1,0,Real,ideal,2019_Mar_17_1935,Face-Threshold,3.0.4,59.88807661207037,
135,4,0.010279086980883964,1,0,Real,ideal,2019_Mar_17_1935,Face-Threshold,3.0.4,59.88807661207037,
136,4,0.008383577565311676,0,0,Real,ideal,2019_Mar_17_1935,Face-Threshold,3.0.4,59.88807661207037,
137,4,0.011736193115649163,1,0,Real,ideal,2019_Mar_17_1935,Face-Threshold,3.0.4,59.88807661207037,
138,4,0.009733347994113364,1,0,Real,ideal,2019_Mar_17_1935,Face-Threshold,3.0.4,59.88807661207037,
139,4,0.007887084325424648,1,0,Real,ideal,2019_Mar_17_1935,Face-Threshold,3.0.4,59.88807661207037,
140,4,0.006030046112246418,0,0,Real,ideal,2019_Mar_17_1935,Face-Threshold,3.0.4,59.88807661207037,
141,4,0.009226472579903375,0,0,Real,ideal,2019_Mar_17_1935,Face-Threshold,3.0.4,59.88807661207037,
142,4,0.012556304820296071,1,0,Real,ideal,2019_Mar_17_1935,Face-Threshold,3.0.4,59.88807661207037,
143,4,0.010589409034253941,0,0,Real,ideal,2019_Mar_17_1935,Face-Threshold,3.0.4,59.88807661207037,
144,4,0.013900913458445435,0,0,Real,ideal,2019_Mar_17_1935,Face-Threshold,3.0.4,59.88807661207037,
145,4,0.017042253372804114,1,0,Real,ideal,2019_Mar_17_1935,Face-Threshold,3.0.4,59.88807661207037,
146,4,0.015119153544165292,1,0,Real,ideal,2019_Mar_17_1935,Face-Threshold,3.0.4,59.88807661207037,
147,4,0.013168913899277934,1,0,Real,ideal,2019_Mar_17_1935,Face-Threshold,3.0.4,59.88807661207037,
148,4,0.01126153105515175,1,0,Real,ideal,2019_Mar_17_1935,Face-Threshold,3.0.4,59.88807661207037,
149,4,0.009382794908396871,1,0,Real,ideal,2019_Mar_17_1935,Face-Threshold,3.0.4,59.88807661207037,
150,4,0.00762352979124338,1,0,Real,ideal,2019_Mar_17_1935,Face-Threshold,3.0.4,59.88807661207037,
151,4,0.00585397709061454,0,0,Real,ideal,2019_Mar_17_1935,Face-Threshold,3.0.4,59.88807661207037,
152,4,0.008899165572658962,1,0,Real,ideal,2019_Mar_17_1935,Face-Threshold,3.0.4,59.88807661207037,
153,4,0.007158391637193728,0,0,Real,ideal,2019_Mar_17_1935,Face-Threshold,3.0.4,59.88807661207037,
154,4,0.010159431485106049,1,0,Real,ideal,2019_Mar_17_1935,Face-Threshold,3.0.4,59.88807661207037,
155,4,0.008425281294610926,1,0,Real,ideal,2019_Mar_17_1935,Face-Threshold,3.0.4,59.88807661207037,
156,4,0.00670211463152369,1,0,Real,ideal,2019_Mar_17_1935,Face-Threshold,3.0.4,59.88807661207037,
157,4,0.004964992717903363,1,0,Real,ideal,2019_Mar_17_1935,Face-Threshold,3.0.4,59.88807661207037,
158,4,0.003277688447225438,0,0,Real,ideal,2019_Mar_17_1935,Face-Threshold,3.0.4,59.88807661207037,
159,4,0.006094169937076455,1,0,Real,ideal,2019_Mar_17_1935,Face-Threshold,3.0.4,59.88807661207037,
160,4,0.0043679499634209085,0,0,Real,ideal,2019_Mar_17_1935,Face-Threshold,3.0.4,59.88807661207037,
161,4,0.00712258088974442,0,0,Real,ideal,2019_Mar_17_1935,Face-Threshold,3.0.4,59.88807661207037,
162,4,0.010013833961744115,0,0,Real,ideal,2019_Mar_17_1935,Face-Threshold,3.0.4,59.88807661207037,
163,4,0.013113023678532953,0,0,Real,ideal,2019_Mar_17_1935,Face-Threshold,3.0.4,59.88807661207037,
164,4,0.016053554614487306,1,0,Real,ideal,2019_Mar_17_1935,Face-Threshold,3.0.4,59.88807661207037,
165,4,0.014255195250214514,0,0,Real,ideal,2019_Mar_17_1935,Face-Threshold,3.0.4,59.88807661207037,
166,4,0.01712782443566052,0,0,Real,ideal,2019_Mar_17_1935,Face-Threshold,3.0.4,59.88807661207037,
167,4,0.020151325837302794,1,0,Real,ideal,2019_Mar_17_1935,Face-Threshold,3.0.4,59.88807661207037,
168,4,0.01840561600300089,1,0,Real,ideal,2019_Mar_17_1935,Face-Threshold,3.0.4,59.88807661207037,
169,4,0.01666943780313937,1,0,Real,ideal,2019_Mar_17_1935,Face-Threshold,3.0.4,59.88807661207037,
170,4,0.014918690155069816,1,0,Real,ideal,2019_Mar_17_1935,Face-Threshold,3.0.4,59.88807661207037,
171,4,0.013217574419090092,1,0,Real,ideal,2019_Mar_17_1935,Face-Threshold,3.0.4,59.88807661207037,
172,4,0.011485861702775463,1,0,Real,ideal,2019_Mar_17_1935,Face-Threshold,3.0.4,59.88807661207037,
173,4,0.009746951894394826,1,0,Real,ideal,2019_Mar_17_1935,Face-Threshold,3.0.4,59.88807661207037,
174,4,0.008156840845230898,1,0,Real,ideal,2019_Mar_17_1935,Face-Threshold,3.0.4,59.88807661207037,
175,4,0.0065619015132246244,1,0,Real,ideal,2019_Mar_17_1935,Face-Threshold,3.0.4,59.88807661207037,
176,4,0.00495497500206922,1,0,Real,ideal,2019_Mar_17_1935,Face-Threshold,3.0.4,59.88807661207037,
177,4,0.0033957110799685275,0,0,Real,ideal,2019_Mar_17_1935,Face-Threshold,3.0.4,59.88807661207037,
178,4,0.0059952405911360696,1,0,Real,ideal,2019_Mar_17_1935,Face-Threshold,3.0.4,59.88807661207037,
179,4,0.004397584717720934,0,0,Real,ideal,2019_Mar_17_1935,Face-Threshold,3.0.4,59.88807661207037,
180,4,0.006944279922866101,1,0,Real,ideal,2019_Mar_17_1935,Face-Threshold,3.0.4,59.88807661207037,
181,4,0.00537143507223968,1,0,Real,ideal,2019_Mar_17_1935,Face-Threshold,3.0.4,59.88807661207037,
182,4,0.0037818728750333708,0,0,Real,ideal,2019_Mar_17_1935,Face-Threshold,3.0.4,59.88807661207037,
183,4,0.006319900190194849,0,0,Real,ideal,2019_Mar_17_1935,Face-Threshold,3.0.4,59.88807661207037,
184,4,0.008981696246159007,0,0,Real,ideal,2019_Mar_17_1935,Face-Threshold,3.0.4,59.88807661207037,
185,4,0.011761546666171643,1,0,Real,ideal,2019_Mar_17_1935,Face-Threshold,3.0.4,59.88807661207037,
186,4,0.010077702772546118,0,0,Real,ideal,2019_Mar_17_1935,Face-Threshold,3.0.4,59.88807661207037,
187,4,0.012909598468037464,1,0,Real,ideal,2019_Mar_17_1935,Face-Threshold,3.0.4,59.88807661207037,
188,4,0.011266559649618771,1,0,Real,ideal,2019_Mar_17_1935,Face-Threshold,3.0.4,59.88807661207037,
189,4,0.00963447851072248,0,0,Real,ideal,2019_Mar_17_1935,Face-Threshold,3.0.4,59.88807661207037,
190,4,0.012414690359521544,1,0,Real,ideal,2019_Mar_17_1935,Face-Threshold,3.0.4,59.88807661207037,
191,4,0.01077694635256371,1,0,Real,ideal,2019_Mar_17_1935,Face-Threshold,3.0.4,59.88807661207037,
192,4,0.009208018511819072,0,0,Real,ideal,2019_Mar_17_1935,Face-Threshold,3.0.4,59.88807661207037,
193,4,0.01192552135114433,1,0,Real,ideal,2019_Mar_17_1935,Face-Threshold,3.0.4,59.88807661207037,
194,4,0.01029241226308257,1,0,Real,ideal,2019_Mar_17_1935,Face-Threshold,3.0.4,59.88807661207037,
195,4,0.008789373799716116,1,0,Real,ideal,2019_Mar_17_1935,Face-Threshold,3.0.4,59.88807661207037,
196,4,0.007318215144603624,1,0,Real,ideal,2019_Mar_17_1935,Face-Threshold,3.0.4,59.88807661207037,
197,4,0.005840425934071997,0,0,Real,ideal,2019_Mar_17_1935,Face-Threshold,3.0.4,59.88807661207037,
198,4,0.008378233228398924,1,0,Real,ideal,2019_Mar_17_1935,Face-Threshold,3.0.4,59.88807661207037,
199,4,0.006920215455743742,0,0,Real,ideal,2019_Mar_17_1935,Face-Threshold,3.0.4,59.88807661207037,
200,4,0.00941626312649925,0,0,Real,ideal,2019_Mar_17_1935,Face-Threshold,3.0.4,59.88807661207037,
201,4,0.012074932658413084,0,0,Real,ideal,2019_Mar_17_1935,Face-Threshold,3.0.4,59.88807661207037,
202,4,0.014675516735528887,0,0,Real,ideal,2019_Mar_17_1935,Face-Threshold,3.0.4,59.88807661207037,
203,4,0.017175224208106923,0,0,Real,ideal,2019_Mar_17_1935,Face-Threshold,3.0.4,59.88807661207037,
204,4,0.019807991217320214,0,0,Real,ideal,2019_Mar_17_1935,Face-Threshold,3.0.4,59.88807661207037,
205,4,0.02263908944499629,0,0,Real,ideal,2019_Mar_17_1935,Face-Threshold,3.0.4,59.88807661207037,
206,4,0.0253526800130221,1,0,Real,ideal,2019_Mar_17_1935,Face-Threshold,3.0.4,59.88807661207037,
207,4,0.023692534427067757,1,0,Real,ideal,2019_Mar_17_1935,Face-Threshold,3.0.4,59.88807661207037,
208,4,0.0220749853111461,1,0,Real,ideal,2019_Mar_17_1935,Face-Threshold,3.0.4,59.88807661207037,
209,4,0.020424752598748014,0,0,Real,ideal,2019_Mar_17_1935,Face-Threshold,3.0.4,59.88807661207037,
210,4,0.023197477797072166,0,0,Real,ideal,2019_Mar_17_1935,Face-Threshold,3.0.4,59.88807661207037,
211,4,0.02584088754639545,0,0,Real,ideal,2019_Mar_17_1935,Face-Threshold,3.0.4,59.88807661207037,
212,4,0.028602741769449685,1,0,Real,ideal,2019_Mar_17_1935,Face-Threshold,3.0.4,59.88807661207037,
213,4,0.0270198549852608,1,0,Real,ideal,2019_Mar_17_1935,Face-Threshold,3.0.4,59.88807661207037,
214,4,0.025426960416037883,0,0,Real,ideal,2019_Mar_17_1935,Face-Threshold,3.0.4,59.88807661207037,
215,4,0.028168123372189657,1,0,Real,ideal,2019_Mar_17_1935,Face-Threshold,3.0.4,59.88807661207037,
216,4,0.026599781386315552,1,0,Real,ideal,2019_Mar_17_1935,Face-Threshold,3.0.4,59.88807661207037,
217,4,0.025019873124359535,0,0,Real,ideal,2019_Mar_17_1935,Face-Threshold,3.0.4,59.88807661207037,
218,4,0.02774140536154407,0,0,Real,ideal,2019_Mar_17_1935,Face-Threshold,3.0.4,59.88807661207037,
219,4,0.030434562541300503,1,0,Real,ideal,2019_Mar_17_1935,Face-Threshold,3.0.4,59.88807661207037,
220,4,0.028855742558057215,1,0,Real,ideal,2019_Mar_17_1935,Face-Threshold,3.0.4,59.88807661207037,
221,4,0.027322269164650623,1,0,Real,ideal,2019_Mar_17_1935,Face-Threshold,3.0.4,59.88807661207037,
222,4,0.025780959908501114,1,0,Real,ideal,2019_Mar_17_1935,Face-Threshold,3.0.4,59.88807661207037,
223,4,0.024225115906005665,0,0,Real,ideal,2019_Mar_17_1935,Face-Threshold,3.0.4,59.88807661207037,
224,4,0.02670592787993467,1,0,Real,ideal,2019_Mar_17_1935,Face-Threshold,3.0.4,59.88807661207037,
225,4,0.025174193852815094,1,0,Real,ideal,2019_Mar_17_1935,Face-Threshold,3.0.4,59.88807661207037,
226,4,0.02362558092685972,0,0,Real,ideal,2019_Mar_17_1935,Face-Threshold,3.0.4,59.88807661207037,
227,4,0.02609887299471332,1,0,Real,ideal,2019_Mar_17_1935,Face-Threshold,3.0.4,59.88807661207037,
228,4,0.02457562646157274,1,0,Real,ideal,2019_Mar_17_1935,Face-Threshold,3.0.4,59.88807661207037,
229,4,0.02309670291249473,1,0,Real,ideal,2019_Mar_17_1935,Face-Threshold,3.0.4,59.88807661207037,
230,4,0.021593122380721377,1,0,Real,ideal,2019_Mar_17_1935,Face-Threshold,3.0.4,59.88807661207037,
231,4,0.020058662323078222,1,0,Real,ideal,2019_Mar_17_1935,Face-Threshold,3.0.4,59.88807661207037,
232,4,0.01868042871505647,1,0,Real,ideal,2019_Mar_17_1935,Face-Threshold,3.0.4,59.88807661207037,
233,4,0.017308953332972152,1,0,Real,ideal,2019_Mar_17_1935,Face-Threshold,3.0.4,59.88807661207037,
234,4,0.01593212558519723,1,0,Real,ideal,2019_Mar_17_1935,Face-Threshold,3.0.4,59.88807661207037,
235,4,0.014544558641969282,0,0,Real,ideal,2019_Mar_17_1935,Face-Threshold,3.0.4,59.88807661207037,
236,4,0.016752158233504094,1,0,Real,ideal,2019_Mar_17_1935,Face-Threshold,3.0.4,59.88807661207037,
237,4,0.015383325411816681,1,0,Real,ideal,2019_Mar_17_1935,Face-Threshold,3.0.4,59.88807661207037,
238,4,0.014001802065754021,1,0,Real,ideal,2019_Mar_17_1935,Face-Threshold,3.0.4,59.88807661207037,
239,4,0.012659759228089248,1,0,Real,ideal,2019_Mar_17_1935,Face-Threshold,3.0.4,59.88807661207037,
240,4,0.01129521209981399,1,0,Real,ideal,2019_Mar_17_1935,Face-Threshold,3.0.4,59.88807661207037,
241,4,0.009914872880639428,1,0,Real,ideal,2019_Mar_17_1935,Face-Threshold,3.0.4,59.88807661207037,
242,4,0.008682467294605964,1,0,Real,ideal,2019_Mar_17_1935,Face-Threshold,3.0.4,59.88807661207037,
243,4,0.007451232149721543,1,0,Real,ideal,2019_Mar_17_1935,Face-Threshold,3.0.4,59.88807661207037,
244,4,0.0062168407725855385,1,0,Real,ideal,2019_Mar_17_1935,Face-Threshold,3.0.4,59.88807661207037,
245,4,0.00497493101191579,1,0,Real,ideal,2019_Mar_17_1935,Face-Threshold,3.0.4,59.88807661207037,
246,4,0.0037730227250003107,1,0,Real,ideal,2019_Mar_17_1935,Face-Threshold,3.0.4,59.88807661207037,
247,4,0.00255543667499826,0,0,Real,ideal,2019_Mar_17_1935,Face-Threshold,3.0.4,59.88807661207037,
248,4,0.004585064195931077,1,0,Real,ideal,2019_Mar_17_1935,Face-Threshold,3.0.4,59.88807661207037,
249,4,0.0033871305557265363,0,0,Real,ideal,2019_Mar_17_1935,Face-Threshold,3.0.4,59.88807661207037,
250,4,0.005379596903002742,1,0,Real,ideal,2019_Mar_17_1935,Face-Threshold,3.0.4,59.88807661207037,
251,4,0.004148004948588496,1,0,Real,ideal,2019_Mar_17_1935,Face-Threshold,3.0.4,59.88807661207037,
252,4,0.00295329300820088,0,0,Real,ideal,2019_Mar_17_1935,Face-Threshold,3.0.4,59.88807661207037,
253,4,0.0049425368860584185,1,0,Real,ideal,2019_Mar_17_1935,Face-Threshold,3.0.4,59.88807661207037,
254,4,0.0037660847172219653,0,0,Real,ideal,2019_Mar_17_1935,Face-Threshold,3.0.4,59.88807661207037,
255,4,0.005720669198250247,0,0,Real,ideal,2019_Mar_17_1935,Face-Threshold,3.0.4,59.88807661207037,
256,4,0.007781778831593103,0,0,Real,ideal,2019_Mar_17_1935,Face-Threshold,3.0.4,59.88807661207037,
257,4,0.00980528042905554,1,0,Real,ideal,2019_Mar_17_1935,Face-Threshold,3.0.4,59.88807661207037,
258,4,0.00862633658910908,0,0,Real,ideal,2019_Mar_17_1935,Face-Threshold,3.0.4,59.88807661207037,
259,4,0.010715207760085207,1,0,Real,ideal,2019_Mar_17_1935,Face-Threshold,3.0.4,59.88807661207037,
260,4,0.009458094084750512,1,0,Real,ideal,2019_Mar_17_1935,Face-Threshold,3.0.4,59.88807661207037,
261,4,0.008289146457393759,0,0,Real,ideal,2019_Mar_17_1935,Face-Threshold,3.0.4,59.88807661207037,
262,4,0.010317387295693356,1,0,Real,ideal,2019_Mar_17_1935,Face-Threshold,3.0.4,59.88807661207037,
263,4,0.009116356837850823,1,0,Real,ideal,2019_Mar_17_1935,Face-Threshold,3.0.4,59.88807661207037,
264,4,0.007956965694617318,0,0,Real,ideal,2019_Mar_17_1935,Face-Threshold,3.0.4,59.88807661207037,
265,4,0.00993215395376798,0,0,Real,ideal,2019_Mar_17_1935,Face-Threshold,3.0.4,59.88807661207037,
266,4,0.012115811438348362,0,0,Real,ideal,2019_Mar_17_1935,Face-Threshold,3.0.4,59.88807661207037,
267,4,0.0142145787395698,1,0,Real,ideal,2019_Mar_17_1935,Face-Threshold,3.0.4,59.88807661207037,
268,4,0.012978717081096866,0,0,Real,ideal,2019_Mar_17_1935,Face-Threshold,3.0.4,59.88807661207037,
269,4,0.01503679244458958,1,0,Real,ideal,2019_Mar_17_1935,Face-Threshold,3.0.4,59.88807661207037,
270,4,0.013767575210710203,1,0,Real,ideal,2019_Mar_17_1935,Face-Threshold,3.0.4,59.88807661207037,
271,4,0.012534763540528432,1,0,Real,ideal,2019_Mar_17_1935,Face-Threshold,3.0.4,59.88807661207037,
272,4,0.011281780987291934,0,0,Real,ideal,2019_Mar_17_1935,Face-Threshold,3.0.4,59.88807661207037,
273,4,0.013377232168410677,0,0,Real,ideal,2019_Mar_17_1935,Face-Threshold,3.0.4,59.88807661207037,
274,4,0.015394513299350265,0,0,Real,ideal,2019_Mar_17_1935,Face-Threshold,3.0.4,59.88807661207037,
275,4,0.01751702842123734,1,0,Real,ideal,2019_Mar_17_1935,Face-Threshold,3.0.4,59.88807661207037,
276,4,0.016295588789531995,1,0,Real,ideal,2019_Mar_17_1935,Face-Threshold,3.0.4,59.88807661207037,
277,4,0.015067112093544568,1,0,Real,ideal,2019_Mar_17_1935,Face-Threshold,3.0.4,59.88807661207037,
278,4,0.013827271607160435,1,0,Real,ideal,2019_Mar_17_1935,Face-Threshold,3.0.4,59.88807661207037,
279,4,0.012623427716358132,1,0,Real,ideal,2019_Mar_17_1935,Face-Threshold,3.0.4,59.88807661207037,
280,4,0.011400370911506474,1,0,Real,ideal,2019_Mar_17_1935,Face-Threshold,3.0.4,59.88807661207037,
281,4,0.010153949437565354,1,0,Real,ideal,2019_Mar_17_1935,Face-Threshold,3.0.4,59.88807661207037,
282,4,0.009034045106086186,0,0,Real,ideal,2019_Mar_17_1935,Face-Threshold,3.0.4,59.88807661207037,
283,4,0.011022502569778103,1,0,Real,ideal,2019_Mar_17_1935,Face-Threshold,3.0.4,59.88807661207037,
284,4,0.009805682207881347,1,0,Real,ideal,2019_Mar_17_1935,Face-Threshold,3.0.4,59.88807661207037,
285,4,0.008714364302382469,1,0,Real,ideal,2019_Mar_17_1935,Face-Threshold,3.0.4,59.88807661207037,
286,4,0.007625172359107035,1,0,Real,ideal,2019_Mar_17_1935,Face-Threshold,3.0.4,59.88807661207037,
287,4,0.006534694754589079,1,0,Real,ideal,2019_Mar_17_1935,Face-Threshold,3.0.4,59.88807661207037,
288,4,0.005439504225620312,0,0,Real,ideal,2019_Mar_17_1935,Face-Threshold,3.0.4,59.88807661207037,
289,4,0.00731802005266062,0,0,Real,ideal,2019_Mar_17_1935,Face-Threshold,3.0.4,59.88807661207037,
290,4,0.009162629324435484,0,0,Real,ideal,2019_Mar_17_1935,Face-Threshold,3.0.4,59.88807661207037,
291,4,0.01112262018117302,1,0,Real,ideal,2019_Mar_17_1935,Face-Threshold,3.0.4,59.88807661207037,
292,4,0.009916671759103005,1,0,Real,ideal,2019_Mar_17_1935,Face-Threshold,3.0.4,59.88807661207037,
293,4,0.008848169690709465,1,0,Real,ideal,2019_Mar_17_1935,Face-Threshold,3.0.4,59.88807661207037,
294,4,0.0077823123670481,1,0,Real,ideal,2019_Mar_17_1935,Face-Threshold,3.0.4,59.88807661207037,
295,4,0.006715829296901843,0,0,Real,ideal,2019_Mar_17_1935,Face-Threshold,3.0.4,59.88807661207037,
296,4,0.008538200849269595,1,0,Real,ideal,2019_Mar_17_1935,Face-Threshold,3.0.4,59.88807661207037,
297,4,0.00748010051250339,1,0,Real,ideal,2019_Mar_17_1935,Face-Threshold,3.0.4,59.88807661207037,
298,4,0.006420504533497545,0,0,Real,ideal,2019_Mar_17_1935,Face-Threshold,3.0.4,59.88807661207037,
299,4,0.008232565039188372,0,0,Real,ideal,2019_Mar_17_1935,Face-Threshold,3.0.4,59.88807661207037,
300,4,0.010024568966927244,0,0,Real,ideal,2019_Mar_17_1935,Face-Threshold,3.0.4,59.88807661207037,
301,4,0.012023345987612385,0,0,Real,ideal,2019_Mar_17_1935,Face-Threshold,3.0.4,59.88807661207037,
302,4,0.013939898703563477,1,0,Real,ideal,2019_Mar_17_1935,Face-Threshold,3.0.4,59.88807661207037,
303,4,0.012809950550142071,1,0,Real,ideal,2019_Mar_17_1935,Face-Threshold,3.0.4,59.88807661207037,
304,4,0.011663014752899131,1,0,Real,ideal,2019_Mar_17_1935,Face-Threshold,3.0.4,59.88807661207037,
305,4,0.010495433020619824,0,0,Real,ideal,2019_Mar_17_1935,Face-Threshold,3.0.4,59.88807661207037,
306,4,0.012450662242622451,1,0,Real,ideal,2019_Mar_17_1935,Face-Threshold,3.0.4,59.88807661207037,
307,4,0.011305207871597375,1,0,Real,ideal,2019_Mar_17_1935,Face-Threshold,3.0.4,59.88807661207037,
308,4,0.010138144537582758,0,0,Real,ideal,2019_Mar_17_1935,Face-Threshold,3.0.4,59.88807661207037,
309,4,0.012094098290140964,0,0,Real,ideal,2019_Mar_17_1935,Face-Threshold,3.0.4,59.88807661207037,
310,4,0.013971083175432358,0,0,Real,ideal,2019_Mar_17_1935,Face-Threshold,3.0.4,59.88807661207037,
311,4,0.01578737123347393,0,0,Real,ideal,2019_Mar_17_1935,Face-Threshold,3.0.4,59.88807661207037,
312,4,0.01770692326052027,0,0,Real,ideal,2019_Mar_17_1935,Face-Threshold,3.0.4,59.88807661207037,
313,4,0.019594484665080625,1,0,Real,ideal,2019_Mar_17_1935,Face-Threshold,3.0.4,59.88807661207037,
314,4,0.018493748698243162,0,0,Real,ideal,2019_Mar_17_1935,Face-Threshold,3.0.4,59.88807661207037,
315,4,0.020416774740442817,1,0,Real,ideal,2019_Mar_17_1935,Face-Threshold,3.0.4,59.88807661207037,
316,4,0.01926955898347371,1,0,Real,ideal,2019_Mar_17_1935,Face-Threshold,3.0.4,59.88807661207037,
317,4,0.018177624980384832,0,0,Real,ideal,2019_Mar_17_1935,Face-Threshold,3.0.4,59.88807661207037,
318,4,0.02004111715293941,1,0,Real,ideal,2019_Mar_17_1935,Face-Threshold,3.0.4,59.88807661207037,
319,4,0.01894945092889644,1,0,Real,ideal,2019_Mar_17_1935,Face-Threshold,3.0.4,59.88807661207037,
320,4,0.017865936204053412,1,0,Real,ideal,2019_Mar_17_1935,Face-Threshold,3.0.4,59.88807661207037,
321,4,0.016781966244707125,0,0,Real,ideal,2019_Mar_17_1935,Face-Threshold,3.0.4,59.88807661207037,
322,4,0.018633990115996937,1,0,Real,ideal,2019_Mar_17_1935,Face-Threshold,3.0.4,59.88807661207037,
323,4,0.017558524691003358,1,0,Real,ideal,2019_Mar_17_1935,Face-Threshold,3.0.4,59.88807661207037,
324,4,0.016481706476211666,0,0,Real,ideal,2019_Mar_17_1935,Face-Threshold,3.0.4,59.88807661207037,
325,4,0.01832301243968823,1,0,Real,ideal,2019_Mar_17_1935,Face-Threshold,3.0.4,59.88807661207037,
326,4,0.017255238487366098,1,0,Real,ideal,2019_Mar_17_1935,Face-Threshold,3.0.4,59.88807661207037,
327,4,0.016185237166060018,1,0,Real,ideal,2019_Mar_17_1935,Face-Threshold,3.0.4,59.88807661207037,
328,4,0.015109707024139496,1,0,Real,ideal,2019_Mar_17_1935,Face-Threshold,3.0.4,59.88807661207037,
329,4,0.014025306874043575,1,0,Real,ideal,2019_Mar_17_1935,Face-Threshold,3.0.4,59.88807661207037,
330,4,0.012974005163581284,1,0,Real,ideal,2019_Mar_17_1935,Face-Threshold,3.0.4,59.88807661207037,
331,4,0.011907814989115126,1,0,Real,ideal,2019_Mar_17_1935,Face-Threshold,3.0.4,59.88807661207037,
332,4,0.010823566603066617,1,0,Real,ideal,2019_Mar_17_1935,Face-Threshold,3.0.4,59.88807661207037,
333,4,0.009756542971231255,1,0,Real,ideal,2019_Mar_17_1935,Face-Threshold,3.0.4,59.88807661207037,
334,4,0.00879765744184123,0,0,Real,ideal,2019_Mar_17_1935,Face-Threshold,3.0.4,59.88807661207037,
335,4,0.010488108225781959,1,0,Real,ideal,2019_Mar_17_1935,Face-Threshold,3.0.4,59.88807661207037,
336,4,0.009468949328711437,0,0,Real,ideal,2019_Mar_17_1935,Face-Threshold,3.0.4,59.88807661207037,
337,4,0.011238295688344405,1,0,Real,ideal,2019_Mar_17_1935,Face-Threshold,3.0.4,59.88807661207037,
338,4,0.010154425119969834,0,0,Real,ideal,2019_Mar_17_1935,Face-Threshold,3.0.4,59.88807661207037,
339,4,0.011970042478948423,1,0,Real,ideal,2019_Mar_17_1935,Face-Threshold,3.0.4,59.88807661207037,
340,4,0.01090651786067448,1,0,Real,ideal,2019_Mar_17_1935,Face-Threshold,3.0.4,59.88807661207037,
341,4,0.0098466558225975,1,0,Real,ideal,2019_Mar_17_1935,Face-Threshold,3.0.4,59.88807661207037,
342,4,0.008905366278402299,1,0,Real,ideal,2019_Mar_17_1935,Face-Threshold,3.0.4,59.88807661207037,
343,4,0.007967269613151487,1,0,Real,ideal,2019_Mar_17_1935,Face-Threshold,3.0.4,59.88807661207037,
344,4,0.007029812670377444,1,0,Real,ideal,2019_Mar_17_1935,Face-Threshold,3.0.4,59.88807661207037,
345,4,0.0060904418349325695,0,0,Real,ideal,2019_Mar_17_1935,Face-Threshold,3.0.4,59.88807661207037,
346,4,0.007697378837080687,1,0,Real,ideal,2019_Mar_17_1935,Face-Threshold,3.0.4,59.88807661207037,
347,4,0.006765574260846133,1,0,Real,ideal,2019_Mar_17_1935,Face-Threshold,3.0.4,59.88807661207037,
348,4,0.005831181370809596,0,0,Real,ideal,2019_Mar_17_1935,Face-Threshold,3.0.4,59.88807661207037,
349,4,0.0074307482418440735,1,0,Real,ideal,2019_Mar_17_1935,Face-Threshold,3.0.4,59.88807661207037,
350,4,0.006504339685301147,0,0,Real,ideal,2019_Mar_17_1935,Face-Threshold,3.0.4,59.88807661207037,
351,4,0.008087107934837134,1,0,Real,ideal,2019_Mar_17_1935,Face-Threshold,3.0.4,59.88807661207037,
352,4,0.0071672681377676906,1,0,Real,ideal,2019_Mar_17_1935,Face-Threshold,3.0.4,59.88807661207037,
353,4,0.0062460066950565385,1,0,Real,ideal,2019_Mar_17_1935,Face-Threshold,3.0.4,59.88807661207037,
354,4,0.005320852004521218,1,0,Real,ideal,2019_Mar_17_1935,Face-Threshold,3.0.4,59.88807661207037,
355,4,0.004389308837742398,0,0,Real,ideal,2019_Mar_17_1935,Face-Threshold,3.0.4,59.88807661207037,
356,4,0.00586786371549132,1,0,Real,ideal,2019_Mar_17_1935,Face-Threshold,3.0.4,59.88807661207037,
357,4,0.004945746029585044,1,0,Real,ideal,2019_Mar_17_1935,Face-Threshold,3.0.4,59.88807661207037,
358,4,0.004054981113811404,0,0,Real,ideal,2019_Mar_17_1935,Face-Threshold,3.0.4,59.88807661207037,
359,4,0.005531423288307885,1,0,Real,ideal,2019_Mar_17_1935,Face-Threshold,3.0.4,59.88807661207037,
360,4,0.004612008889237115,0,0,Real,ideal,2019_Mar_17_1935,Face-Threshold,3.0.4,59.88807661207037,
361,4,0.006070248722222324,0,0,Real,ideal,2019_Mar_17_1935,Face-Threshold,3.0.4,59.88807661207037,
362,4,0.007620457349375193,1,0,Real,ideal,2019_Mar_17_1935,Face-Threshold,3.0.4,59.88807661207037,
363,4,0.006721227256996087,1,0,Real,ideal,2019_Mar_17_1935,Face-Threshold,3.0.4,59.88807661207037,
364,4,0.005819541227606903,1,0,Real,ideal,2019_Mar_17_1935,Face-Threshold,3.0.4,59.88807661207037,
365,4,0.004913027310820453,0,0,Real,ideal,2019_Mar_17_1935,Face-Threshold,3.0.4,59.88807661207037,
366,4,0.006349409103367301,0,0,Real,ideal,2019_Mar_17_1935,Face-Threshold,3.0.4,59.88807661207037,
367,4,0.007878783264365807,0,0,Real,ideal,2019_Mar_17_1935,Face-Threshold,3.0.4,59.88807661207037,
368,4,0.009391503601864443,0,0,Real,ideal,2019_Mar_17_1935,Face-Threshold,3.0.4,59.88807661207037,
369,4,0.011028503885632493,1,0,Real,ideal,2019_Mar_17_1935,Face-Threshold,3.0.4,59.88807661207037,
370,4,0.010011432483281485,1,0,Real,ideal,2019_Mar_17_1935,Face-Threshold,3.0.4,59.88807661207037,
371,4,0.009126491028574893,0,0,Real,ideal,2019_Mar_17_1935,Face-Threshold,3.0.4,59.88807661207037,
372,4,0.010716752080798878,1,0,Real,ideal,2019_Mar_17_1935,Face-Threshold,3.0.4,59.88807661207037,
373,4,0.009741635742391438,0,0,Real,ideal,2019_Mar_17_1935,Face-Threshold,3.0.4,59.88807661207037,
374,4,0.011404980928943195,1,0,Real,ideal,2019_Mar_17_1935,Face-Threshold,3.0.4,59.88807661207037,
375,4,0.010406468262651264,1,0,Real,ideal,2019_Mar_17_1935,Face-Threshold,3.0.4,59.88807661207037,
376,4,0.009476910714943401,1,0,Real,ideal,2019_Mar_17_1935,Face-Threshold,3.0.4,59.88807661207037,
377,4,0.008606394779987092,0,0,Real,ideal,2019_Mar_17_1935,Face-Threshold,3.0.4,59.88807661207037,
378,4,0.010097552333793003,1,0,Real,ideal,2019_Mar_17_1935,Face-Threshold,3.0.4,59.88807661207037,
379,4,0.00921557074780896,1,0,Real,ideal,2019_Mar_17_1935,Face-Threshold,3.0.4,59.88807661207037,
380,4,0.00835109771188855,1,0,Real,ideal,2019_Mar_17_1935,Face-Threshold,3.0.4,59.88807661207037,
381,4,0.007488539608212844,0,0,Real,ideal,2019_Mar_17_1935,Face-Threshold,3.0.4,59.88807661207037,
382,4,0.008957506946835378,1,0,Real,ideal,2019_Mar_17_1935,Face-Threshold,3.0.4,59.88807661207037,
383,4,0.008098831504286086,0,0,Real,ideal,2019_Mar_17_1935,Face-Threshold,3.0.4,59.88807661207037,
384,4,0.009558545526348397,0,0,Real,ideal,2019_Mar_17_1935,Face-Threshold,3.0.4,59.88807661207037,
385,4,0.011161237032496066,0,0,Real,ideal,2019_Mar_17_1935,Face-Threshold,3.0.4,59.88807661207037,
386,4,0.01277111456095291,1,0,Real,ideal,2019_Mar_17_1935,Face-Threshold,3.0.4,59.88807661207037,
387,4,0.01182284016715901,1,0,Real,ideal,2019_Mar_17_1935,Face-Threshold,3.0.4,59.88807661207037,
388,4,0.010858922507370736,0,0,Real,ideal,2019_Mar_17_1935,Face-Threshold,3.0.4,59.88807661207037,
389,4,0.012469930242050606,0,0,Real,ideal,2019_Mar_17_1935,Face-Threshold,3.0.4,59.88807661207037,
390,4,0.014024589120672837,0,0,Real,ideal,2019_Mar_17_1935,Face-Threshold,3.0.4,59.88807661207037,
391,4,0.015535294710097264,1,0,Real,ideal,2019_Mar_17_1935,Face-Threshold,3.0.4,59.88807661207037,
392,4,0.01459482830210701,1,0,Real,ideal,2019_Mar_17_1935,Face-Threshold,3.0.4,59.88807661207037,
393,4,0.013685355525253587,1,0,Real,ideal,2019_Mar_17_1935,Face-Threshold,3.0.4,59.88807661207037,
394,4,0.01276540503269949,1,0,Real,ideal,2019_Mar_17_1935,Face-Threshold,3.0.4,59.88807661207037,
395,4,0.011832604602731542,0,0,Real,ideal,2019_Mar_17_1935,Face-Threshold,3.0.4,59.88807661207037,
396,4,0.013387723170289717,1,0,Real,ideal,2019_Mar_17_1935,Face-Threshold,3.0.4,59.88807661207037,
397,4,0.012468843840601429,0,0,Real,ideal,2019_Mar_17_1935,Face-Threshold,3.0.4,59.88807661207037,
398,4,0.013998234281109745,0,0,Real,ideal,2019_Mar_17_1935,Face-Threshold,3.0.4,59.88807661207037,
399,4,0.015484676885748463,1,0,Real,ideal,2019_Mar_17_1935,Face-Threshold,3.0.4,59.88807661207037,
400,4,0.01455923996230915,1,0,Real,ideal,2019_Mar_17_1935,Face-Threshold,3.0.4,59.88807661207037,
401,4,0.013664281699219419,1,0,Real,ideal,2019_Mar_17_1935,Face-Threshold,3.0.4,59.88807661207037,
402,4,0.012759032621249125,0,0,Real,ideal,2019_Mar_17_1935,Face-Threshold,3.0.4,59.88807661207037,
403,4,0.014264531088925378,1,0,Real,ideal,2019_Mar_17_1935,Face-Threshold,3.0.4,59.88807661207037,
404,4,0.01337121929633188,1,0,Real,ideal,2019_Mar_17_1935,Face-Threshold,3.0.4,59.88807661207037,
405,4,0.012466956576199104,1,0,Real,ideal,2019_Mar_17_1935,Face-Threshold,3.0.4,59.88807661207037,
406,4,0.011549448457704267,1,0,Real,ideal,2019_Mar_17_1935,Face-Threshold,3.0.4,59.88807661207037,
407,4,0.010616332903258086,0,0,Real,ideal,2019_Mar_17_1935,Face-Threshold,3.0.4,59.88807661207037,
408,4,0.012176494295989188,1,0,Real,ideal,2019_Mar_17_1935,Face-Threshold,3.0.4,59.88807661207037,
409,4,0.011259088992834426,1,0,Real,ideal,2019_Mar_17_1935,Face-Threshold,3.0.4,59.88807661207037,
410,4,0.010325427678128746,1,0,Real,ideal,2019_Mar_17_1935,Face-Threshold,3.0.4,59.88807661207037,
411,4,0.009467019554913067,0,0,Real,ideal,2019_Mar_17_1935,Face-Threshold,3.0.4,59.88807661207037,
412,4,0.010970026018335632,1,0,Real,ideal,2019_Mar_17_1935,Face-Threshold,3.0.4,59.88807661207037,
413,4,0.010035601020119245,1,0,Real,ideal,2019_Mar_17_1935,Face-Threshold,3.0.4,59.88807661207037,
414,4,0.00922300088383203,1,0,Real,ideal,2019_Mar_17_1935,Face-Threshold,3.0.4,59.88807661207037,
415,4,0.008419549803427823,1,0,Real,ideal,2019_Mar_17_1935,Face-Threshold,3.0.4,59.88807661207037,
416,4,0.007618307773115396,0,0,Real,ideal,2019_Mar_17_1935,Face-Threshold,3.0.4,59.88807661207037,
417,4,0.008981888341359198,1,0,Real,ideal,2019_Mar_17_1935,Face-Threshold,3.0.4,59.88807661207037,
418,4,0.008183619172217688,1,0,Real,ideal,2019_Mar_17_1935,Face-Threshold,3.0.4,59.88807661207037,
419,4,0.007387014722971694,1,0,Real,ideal,2019_Mar_17_1935,Face-Threshold,3.0.4,59.88807661207037,
420,4,0.006590214415749432,0,0,Real,ideal,2019_Mar_17_1935,Face-Threshold,3.0.4,59.88807661207037,
421,4,0.00795029666285163,0,0,Real,ideal,2019_Mar_17_1935,Face-Threshold,3.0.4,59.88807661207037,
422,4,0.00929897780838751,1,0,Real,ideal,2019_Mar_17_1935,Face-Threshold,3.0.4,59.88807661207037,
423,4,0.008508022207861982,1,0,Real,ideal,2019_Mar_17_1935,Face-Threshold,3.0.4,59.88807661207037,
424,4,0.007719500160275866,0,0,Real,ideal,2019_Mar_17_1935,Face-Threshold,3.0.4,59.88807661207037,
425,4,0.009060943989740403,1,0,Real,ideal,2019_Mar_17_1935,Face-Threshold,3.0.4,59.88807661207037,
426,4,0.008275095793706486,0,0,Real,ideal,2019_Mar_17_1935,Face-Threshold,3.0.4,59.88807661207037,
427,4,0.009609787192158575,1,0,Real,ideal,2019_Mar_17_1935,Face-Threshold,3.0.4,59.88807661207037,
428,4,0.008825672758820874,1,0,Real,ideal,2019_Mar_17_1935,Face-Threshold,3.0.4,59.88807661207037,
429,4,0.00804472965000208,1,0,Real,ideal,2019_Mar_17_1935,Face-Threshold,3.0.4,59.88807661207037,
430,4,0.007265169016783188,1,0,Real,ideal,2019_Mar_17_1935,Face-Threshold,3.0.4,59.88807661207037,
431,4,0.006485206584645978,1,0,Real,ideal,2019_Mar_17_1935,Face-Threshold,3.0.4,59.88807661207037,
432,4,0.0057030547334420145,1,0,Real,ideal,2019_Mar_17_1935,Face-Threshold,3.0.4,59.88807661207037,
433,4,0.004916914566674063,0,0,Real,ideal,2019_Mar_17_1935,Face-Threshold,3.0.4,59.88807661207037,
434,4,0.006161744052839299,0,0,Real,ideal,2019_Mar_17_1935,Face-Threshold,3.0.4,59.88807661207037,
435,4,0.0074892571320012286,1,0,Real,ideal,2019_Mar_17_1935,Face-Threshold,3.0.4,59.88807661207037,
436,4,0.006717516022175185,1,0,Real,ideal,2019_Mar_17_1935,Face-Threshold,3.0.4,59.88807661207037,
437,4,0.0059441659806393765,1,0,Real,ideal,2019_Mar_17_1935,Face-Threshold,3.0.4,59.88807661207037,
438,4,0.005167447726202742,1,0,Real,ideal,2019_Mar_17_1935,Face-Threshold,3.0.4,59.88807661207037,
439,4,0.004385585680471621,1,0,Real,ideal,2019_Mar_17_1935,Face-Threshold,3.0.4,59.88807661207037,
440,4,0.003629603118043584,1,0,Real,ideal,2019_Mar_17_1935,Face-Threshold,3.0.4,59.88807661207037,
441,4,0.002865342995855988,0,0,Real,ideal,2019_Mar_17_1935,Face-Threshold,3.0.4,59.88807661207037,
442,4,0.004135221515918774,0,0,Real,ideal,2019_Mar_17_1935,Face-Threshold,3.0.4,59.88807661207037,
443,4,0.005373817045947665,1,0,Real,ideal,2019_Mar_17_1935,Face-Threshold,3.0.4,59.88807661207037,
444,4,0.004600759850412722,0,0,Real,ideal,2019_Mar_17_1935,Face-Threshold,3.0.4,59.88807661207037,
445,4,0.0058259591511336944,0,0,Real,ideal,2019_Mar_17_1935,Face-Threshold,3.0.4,59.88807661207037,
446,4,0.007130819003916919,1,0,Real,ideal,2019_Mar_17_1935,Face-Threshold,3.0.4,59.88807661207037,
447,4,0.006373378311929495,0,0,Real,ideal,2019_Mar_17_1935,Face-Threshold,3.0.4,59.88807661207037,
448,4,0.0076668415379514965,1,0,Real,ideal,2019_Mar_17_1935,Face-Threshold,3.0.4,59.88807661207037,
449,4,0.006913903499249349,0,0,Real,ideal,2019_Mar_17_1935,Face-Threshold,3.0.4,59.88807661207037,
450,4,0.00819761354584947,1,0,Real,ideal,2019_Mar_17_1935,Face-Threshold,3.0.4,59.88807661207037,
451,4,0.007448273019776283,0,0,Real,ideal,2019_Mar_17_1935,Face-Threshold,3.0.4,59.88807661207037,
452,4,0.00872381767152329,1,0,Real,ideal,2019_Mar_17_1935,Face-Threshold,3.0.4,59.88807661207037,
453,4,0.007977195947272295,0,0,Real,ideal,2019_Mar_17_1935,Face-Threshold,3.0.4,59.88807661207037,
454,4,0.00924611240540038,1,0,Real,ideal,2019_Mar_17_1935,Face-Threshold,3.0.4,59.88807661207037,
455,4,0.00850135457726034,1,0,Real,ideal,2019_Mar_17_1935,Face-Threshold,3.0.4,59.88807661207037,
456,4,0.007759059616167421,1,0,Real,ideal,2019_Mar_17_1935,Face-Threshold,3.0.4,59.88807661207037,
457,4,0.007017606074760263,0,0,Real,ideal,2019_Mar_17_1935,Face-Threshold,3.0.4,59.88807661207037,
458,4,0.008281277230552914,0,0,Real,ideal,2019_Mar_17_1935,Face-Threshold,3.0.4,59.88807661207037,
459,4,0.00953798782844456,0,0,Real,ideal,2019_Mar_17_1935,Face-Threshold,3.0.4,59.88807661207037,
460,4,0.010919010486454467,0,0,Real,ideal,2019_Mar_17_1935,Face-Threshold,3.0.4,59.88807661207037,
461,4,0.012327100236332156,1,0,Real,ideal,2019_Mar_17_1935,Face-Threshold,3.0.4,59.88807661207037,
462,4,0.011497155854644989,0,0,Real,ideal,2019_Mar_17_1935,Face-Threshold,3.0.4,59.88807661207037,
463,4,0.01288120655877037,1,0,Real,ideal,2019_Mar_17_1935,Face-Threshold,3.0.4,59.88807661207037,
464,4,0.012063418096569134,0,0,Real,ideal,2019_Mar_17_1935,Face-Threshold,3.0.4,59.88807661207037,
465,4,0.013425231421990522,1,0,Real,ideal,2019_Mar_17_1935,Face-Threshold,3.0.4,59.88807661207037,
466,4,0.01261860019688621,1,0,Real,ideal,2019_Mar_17_1935,Face-Threshold,3.0.4,59.88807661207037,
467,4,0.011800867795251357,0,0,Real,ideal,2019_Mar_17_1935,Face-Threshold,3.0.4,59.88807661207037,
468,4,0.013163466550569158,1,0,Real,ideal,2019_Mar_17_1935,Face-Threshold,3.0.4,59.88807661207037,
469,4,0.012357237006407049,0,0,Real,ideal,2019_Mar_17_1935,Face-Threshold,3.0.4,59.88807661207037,
470,4,0.013698745685688615,1,0,Real,ideal,2019_Mar_17_1935,Face-Threshold,3.0.4,59.88807661207037,
471,4,0.01290305630711662,1,0,Real,ideal,2019_Mar_17_1935,Face-Threshold,3.0.4,59.88807661207037,
472,4,0.012097042326510446,1,0,Real,ideal,2019_Mar_17_1935,Face-Threshold,3.0.4,59.88807661207037,
473,4,0.011278871209483746,0,0,Real,ideal,2019_Mar_17_1935,Face-Threshold,3.0.4,59.88807661207037,
474,4,0.01264392457015133,1,0,Real,ideal,2019_Mar_17_1935,Face-Threshold,3.0.4,59.88807661207037,
475,4,0.011837943227089254,0,0,Real,ideal,2019_Mar_17_1935,Face-Threshold,3.0.4,59.88807661207037,
476,4,0.013180762490634199,0,0,Real,ideal,2019_Mar_17_1935,Face-Threshold,3.0.4,59.88807661207037,
477,4,0.014484388438053539,1,0,Real,ideal,2019_Mar_17_1935,Face-Threshold,3.0.4,59.88807661207037,
478,4,0.013708261491157503,1,0,Real,ideal,2019_Mar_17_1935,Face-Threshold,3.0.4,59.88807661207037,
479,4,0.012923778145827805,1,0,Real,ideal,2019_Mar_17_1935,Face-Threshold,3.0.4,59.88807661207037,
480,4,0.012129201079195448,0,0,Real,ideal,2019_Mar_17_1935,Face-Threshold,3.0.4,59.88807661207037,
481,4,0.013451997339001417,0,0,Real,ideal,2019_Mar_17_1935,Face-Threshold,3.0.4,59.88807661207037,
482,4,0.014737907035181005,0,0,Real,ideal,2019_Mar_17_1935,Face-Threshold,3.0.4,59.88807661207037,
483,4,0.01599529162108683,1,0,Real,ideal,2019_Mar_17_1935,Face-Threshold,3.0.4,59.88807661207037,
484,4,0.015208335418798652,1,0,Real,ideal,2019_Mar_17_1935,Face-Threshold,3.0.4,59.88807661207037,
485,4,0.014416279437002466,0,0,Real,ideal,2019_Mar_17_1935,Face-Threshold,3.0.4,59.88807661207037,
486,4,0.015672309889684197,1,0,Real,ideal,2019_Mar_17_1935,Face-Threshold,3.0.4,59.88807661207037,
487,4,0.014887364925125726,1,0,Real,ideal,2019_Mar_17_1935,Face-Threshold,3.0.4,59.88807661207037,
488,4,0.014129594060725642,1,0,Real,ideal,2019_Mar_17_1935,Face-Threshold,3.0.4,59.88807661207037,
489,4,0.01336458613931231,0,0,Real,ideal,2019_Mar_17_1935,Face-Threshold,3.0.4,59.88807661207037,
490,4,0.014633984671792,1,0,Real,ideal,2019_Mar_17_1935,Face-Threshold,3.0.4,59.88807661207037,
491,4,0.013877444739034253,1,0,Real,ideal,2019_Mar_17_1935,Face-Threshold,3.0.4,59.88807661207037,
492,4,0.013113172918788343,0,0,Real,ideal,2019_Mar_17_1935,Face-Threshold,3.0.4,59.88807661207037,
493,4,0.014382171236265479,1,0,Real,ideal,2019_Mar_17_1935,Face-Threshold,3.0.4,59.88807661207037,
494,4,0.013626681062099036,1,0,Real,ideal,2019_Mar_17_1935,Face-Threshold,3.0.4,59.88807661207037,
495,4,0.012862969368347965,1,0,Real,ideal,2019_Mar_17_1935,Face-Threshold,3.0.4,59.88807661207037,
496,4,0.012089387442663205,1,0,Real,ideal,2019_Mar_17_1935,Face-Threshold,3.0.4,59.88807661207037,
497,4,0.011304244153738902,0,0,Real,ideal,2019_Mar_17_1935,Face-Threshold,3.0.4,59.88807661207037,
498,4,0.012613905990048468,0,0,Real,ideal,2019_Mar_17_1935,Face-Threshold,3.0.4,59.88807661207037,
499,4,0.013882942976487844,1,0,Real,ideal,2019_Mar_17_1935,Face-Threshold,3.0.4,59.88807661207037,
500,4,0.013129022103944538,1,0,Real,ideal,2019_Mar_17_1935,Face-Threshold,3.0.4,59.88807661207037,
501,4,0.012365914865206329,1,0,Real,ideal,2019_Mar_17_1935,Face-Threshold,3.0.4,59.88807661207037,
502,4,0.01159197469769098,0,0,Real,ideal,2019_Mar_17_1935,Face-Threshold,3.0.4,59.88807661207037,
503,4,0.012881986769328918,1,0,Real,ideal,2019_Mar_17_1935,Face-Threshold,3.0.4,59.88807661207037,
504,4,0.01211892959163445,1,0,Real,ideal,2019_Mar_17_1935,Face-Threshold,3.0.4,59.88807661207037,
505,4,0.011344563838616789,0,0,Real,ideal,2019_Mar_17_1935,Face-Threshold,3.0.4,59.88807661207037,
506,4,0.012636056839890525,0,0,Real,ideal,2019_Mar_17_1935,Face-Threshold,3.0.4,59.88807661207037,
507,4,0.013887860499872937,1,0,Real,ideal,2019_Mar_17_1935,Face-Threshold,3.0.4,59.88807661207037,
508,4,0.013144012452779713,0,0,Real,ideal,2019_Mar_17_1935,Face-Threshold,3.0.4,59.88807661207037,
509,4,0.014378879762965854,1,0,Real,ideal,2019_Mar_17_1935,Face-Threshold,3.0.4,59.88807661207037,
510,4,0.013643423209492841,1,0,Real,ideal,2019_Mar_17_1935,Face-Threshold,3.0.4,59.88807661207037,
511,4,0.012900068016159838,0,0,Real,ideal,2019_Mar_17_1935,Face-Threshold,3.0.4,59.88807661207037,
512,4,0.014134888643362112,1,0,Real,ideal,2019_Mar_17_1935,Face-Threshold,3.0.4,59.88807661207037,
513,4,0.013400222196293388,1,0,Real,ideal,2019_Mar_17_1935,Face-Threshold,3.0.4,59.88807661207037,
514,4,0.012657195471365817,0,0,Real,ideal,2019_Mar_17_1935,Face-Threshold,3.0.4,59.88807661207037,
515,4,0.013892232653498149,0,0,Real,ideal,2019_Mar_17_1935,Face-Threshold,3.0.4,59.88807661207037,
516,4,0.015096256453595136,1,0,Real,ideal,2019_Mar_17_1935,Face-Threshold,3.0.4,59.88807661207037,
517,4,0.014345315152012747,1,0,Real,ideal,2019_Mar_17_1935,Face-Threshold,3.0.4,59.88807661207037,
518,4,0.01361931260283332,0,0,Real,ideal,2019_Mar_17_1935,Face-Threshold,3.0.4,59.88807661207037,
519,4,0.014822960552888578,1,0,Real,ideal,2019_Mar_17_1935,Face-Threshold,3.0.4,59.88807661207037,
520,4,0.01410446026538241,0,0,Real,ideal,2019_Mar_17_1935,Face-Threshold,3.0.4,59.88807661207037,
521,4,0.015294097371402096,1,0,Real,ideal,2019_Mar_17_1935,Face-Threshold,3.0.4,59.88807661207037,
522,4,0.014551325193447595,0,0,Real,ideal,2019_Mar_17_1935,Face-Threshold,3.0.4,59.88807661207037,
523,4,0.015728430622866274,0,0,Real,ideal,2019_Mar_17_1935,Face-Threshold,3.0.4,59.88807661207037,
524,4,0.016982410191910546,1,0,Real,ideal,2019_Mar_17_1935,Face-Threshold,3.0.4,59.88807661207037,
525,4,0.016254487496140377,1,0,Real,ideal,2019_Mar_17_1935,Face-Threshold,3.0.4,59.88807661207037,
526,4,0.015524265343771493,1,0,Real,ideal,2019_Mar_17_1935,Face-Threshold,3.0.4,59.88807661207037,
527,4,0.014790171112616934,1,0,Real,ideal,2019_Mar_17_1935,Face-Threshold,3.0.4,59.88807661207037,
528,4,0.01408146616693226,1,0,Real,ideal,2019_Mar_17_1935,Face-Threshold,3.0.4,59.88807661207037,
529,4,0.013366071380906744,1,0,Real,ideal,2019_Mar_17_1935,Face-Threshold,3.0.4,59.88807661207037,
530,4,0.012642536022226064,1,0,Real,ideal,2019_Mar_17_1935,Face-Threshold,3.0.4,59.88807661207037,
531,4,0.011909376300905106,1,0,Real,ideal,2019_Mar_17_1935,Face-Threshold,3.0.4,59.88807661207037,
532,4,0.011165069526043972,1,0,Real,ideal,2019_Mar_17_1935,Face-Threshold,3.0.4,59.88807661207037,
533,4,0.010408048045485882,1,0,Real,ideal,2019_Mar_17_1935,Face-Threshold,3.0.4,59.88807661207037,
534,4,0.009694412390387652,0,0,Real,ideal,2019_Mar_17_1935,Face-Threshold,3.0.4,59.88807661207037,
535,4,0.010928181047647173,1,0,Real,ideal,2019_Mar_17_1935,Face-Threshold,3.0.4,59.88807661207037,
536,4,0.010169933553428781,1,0,Real,ideal,2019_Mar_17_1935,Face-Threshold,3.0.4,59.88807661207037,
537,4,0.00949504550105329,1,0,Real,ideal,2019_Mar_17_1935,Face-Threshold,3.0.4,59.88807661207037,
538,4,0.008850178726880598,1,0,Real,ideal,2019_Mar_17_1935,Face-Threshold,3.0.4,59.88807661207037,
539,4,0.008208447283942683,1,0,Real,ideal,2019_Mar_17_1935,Face-Threshold,3.0.4,59.88807661207037,
540,4,0.007568629659418152,0,0,Real,ideal,2019_Mar_17_1935,Face-Threshold,3.0.4,59.88807661207037,
541,4,0.008656748956880594,0,0,Real,ideal,2019_Mar_17_1935,Face-Threshold,3.0.4,59.88807661207037,
542,4,0.009743376984546942,1,0,Real,ideal,2019_Mar_17_1935,Face-Threshold,3.0.4,59.88807661207037,
543,4,0.009102485932002996,1,0,Real,ideal,2019_Mar_17_1935,Face-Threshold,3.0.4,59.88807661207037,
544,4,0.008465199702333184,0,0,Real,ideal,2019_Mar_17_1935,Face-Threshold,3.0.4,59.88807661207037,
545,4,0.00954611280314964,0,0,Real,ideal,2019_Mar_17_1935,Face-Threshold,3.0.4,59.88807661207037,
546,4,0.010735566224984658,0,0,Real,ideal,2019_Mar_17_1935,Face-Threshold,3.0.4,59.88807661207037,
547,4,0.011965234525016563,1,0,Real,ideal,2019_Mar_17_1935,Face-Threshold,3.0.4,59.88807661207037,
548,4,0.01123998344665647,1,0,Real,ideal,2019_Mar_17_1935,Face-Threshold,3.0.4,59.88807661207037,
549,4,0.01050254069347735,0,0,Real,ideal,2019_Mar_17_1935,Face-Threshold,3.0.4,59.88807661207037,
550,4,0.011734662625590184,1,0,Real,ideal,2019_Mar_17_1935,Face-Threshold,3.0.4,59.88807661207037,
551,4,0.011008622047019911,1,0,Real,ideal,2019_Mar_17_1935,Face-Threshold,3.0.4,59.88807661207037,
552,4,0.01026997027216156,1,0,Real,ideal,2019_Mar_17_1935,Face-Threshold,3.0.4,59.88807661207037,
553,4,0.00959558365973473,1,0,Real,ideal,2019_Mar_17_1935,Face-Threshold,3.0.4,59.88807661207037,
554,4,0.008966369256518752,0,0,Real,ideal,2019_Mar_17_1935,Face-Threshold,3.0.4,59.88807661207037,
555,4,0.01003780385997212,1,0,Real,ideal,2019_Mar_17_1935,Face-Threshold,3.0.4,59.88807661207037,
556,4,0.00940239106680446,1,0,Real,ideal,2019_Mar_17_1935,Face-Threshold,3.0.4,59.88807661207037,
557,4,0.008776952267523425,1,0,Real,ideal,2019_Mar_17_1935,Face-Threshold,3.0.4,59.88807661207037,
558,4,0.008154483978763838,0,0,Real,ideal,2019_Mar_17_1935,Face-Threshold,3.0.4,59.88807661207037,
559,4,0.009211157891343774,1,0,Real,ideal,2019_Mar_17_1935,Face-Threshold,3.0.4,59.88807661207037,
560,4,0.008589361656311037,0,0,Real,ideal,2019_Mar_17_1935,Face-Threshold,3.0.4,59.88807661207037,
561,4,0.009643526686557227,1,0,Real,ideal,2019_Mar_17_1935,Face-Threshold,3.0.4,59.88807661207037,
562,4,0.009021829694828579,1,0,Real,ideal,2019_Mar_17_1935,Face-Threshold,3.0.4,59.88807661207037,
563,4,0.008403546097399059,0,0,Real,ideal,2019_Mar_17_1935,Face-Threshold,3.0.4,59.88807661207037,
564,4,0.00945231550521583,1,0,Real,ideal,2019_Mar_17_1935,Face-Threshold,3.0.4,59.88807661207037,
565,4,0.008834353480368207,0,0,Real,ideal,2019_Mar_17_1935,Face-Threshold,3.0.4,59.88807661207037,
566,4,0.009881235732375843,1,0,Real,ideal,2019_Mar_17_1935,Face-Threshold,3.0.4,59.88807661207037,
567,4,0.009263035090335991,0,0,Real,ideal,2019_Mar_17_1935,Face-Threshold,3.0.4,59.88807661207037,
568,4,0.010363669071474874,1,0,Real,ideal,2019_Mar_17_1935,Face-Threshold,3.0.4,59.88807661207037,
569,4,0.009690006733927364,0,0,Real,ideal,2019_Mar_17_1935,Face-Threshold,3.0.4,59.88807661207037,
570,4,0.010858149902485348,0,0,Real,ideal,2019_Mar_17_1935,Face-Threshold,3.0.4,59.88807661207037,
571,4,0.01204140922332507,1,0,Real,ideal,2019_Mar_17_1935,Face-Threshold,3.0.4,59.88807661207037,
572,4,0.011342956935525755,0,0,Real,ideal,2019_Mar_17_1935,Face-Threshold,3.0.4,59.88807661207037,
573,4,0.012507430841065453,0,0,Real,ideal,2019_Mar_17_1935,Face-Threshold,3.0.4,59.88807661207037,
574,4,0.013637181525440897,1,0,Real,ideal,2019_Mar_17_1935,Face-Threshold,3.0.4,59.88807661207037,
575,4,0.012965616170700647,0,0,Real,ideal,2019_Mar_17_1935,Face-Threshold,3.0.4,59.88807661207037,
576,4,0.014080624893013635,1,0,Real,ideal,2019_Mar_17_1935,Face-Threshold,3.0.4,59.88807661207037,
577,4,0.01341646971821904,1,0,Real,ideal,2019_Mar_17_1935,Face-Threshold,3.0.4,59.88807661207037,
578,4,0.012745006171442391,1,0,Real,ideal,2019_Mar_17_1935,Face-Threshold,3.0.4,59.88807661207037,
579,4,0.0120649517954102,1,0,Real,ideal,2019_Mar_17_1935,Face-Threshold,3.0.4,59.88807661207037,
580,4,0.011374991921380667,1,0,Real,ideal,2019_Mar_17_1935,Face-Threshold,3.0.4,59.88807661207037,
581,4,0.010673774799810007,0,0,Real,ideal,2019_Mar_17_1935,Face-Threshold,3.0.4,59.88807661207037,
582,4,0.011844707894822809,1,0,Real,ideal,2019_Mar_17_1935,Face-Threshold,3.0.4,59.88807661207037,
583,4,0.011153955000503604,0,0,Real,ideal,2019_Mar_17_1935,Face-Threshold,3.0.4,59.88807661207037,
584,4,0.012306067824947434,0,0,Real,ideal,2019_Mar_17_1935,Face-Threshold,3.0.4,59.88807661207037,
585,4,0.013423098756900412,0,0,Real,ideal,2019_Mar_17_1935,Face-Threshold,3.0.4,59.88807661207037,
586,4,0.014511431753182868,0,0,Real,ideal,2019_Mar_17_1935,Face-Threshold,3.0.4,59.88807661207037,
587,4,0.015577057865839447,0,0,Real,ideal,2019_Mar_17_1935,Face-Threshold,3.0.4,59.88807661207037,
588,4,0.016713046688903693,1,0,Real,ideal,2019_Mar_17_1935,Face-Threshold,3.0.4,59.88807661207037,
589,4,0.016053534058314306,1,0,Real,ideal,2019_Mar_17_1935,Face-Threshold,3.0.4,59.88807661207037,
590,4,0.015391763001319225,0,0,Real,ideal,2019_Mar_17_1935,Face-Threshold,3.0.4,59.88807661207037,
591,4,0.016524504462730946,1,0,Real,ideal,2019_Mar_17_1935,Face-Threshold,3.0.4,59.88807661207037,
592,4,0.01586746750332818,0,0,Real,ideal,2019_Mar_17_1935,Face-Threshold,3.0.4,59.88807661207037,
593,4,0.016990523641848027,1,0,Real,ideal,2019_Mar_17_1935,Face-Threshold,3.0.4,59.88807661207037,
594,4,0.016337512573481913,1,0,Real,ideal,2019_Mar_17_1935,Face-Threshold,3.0.4,59.88807661207037,
595,4,0.01568283176805063,1,0,Real,ideal,2019_Mar_17_1935,Face-Threshold,3.0.4,59.88807661207037,
596,4,0.015025209600920422,1,0,Real,ideal,2019_Mar_17_1935,Face-Threshold,3.0.4,59.88807661207037,
597,4,0.014363362853773182,1,0,Real,ideal,2019_Mar_17_1935,Face-Threshold,3.0.4,59.88807661207037,
598,4,0.013723807951333572,1,0,Real,ideal,2019_Mar_17_1935,Face-Threshold,3.0.4,59.88807661207037,
599,4,0.013077810405333373,1,0,Real,ideal,2019_Mar_17_1935,Face-Threshold,3.0.4,59.88807661207037,
600,4,0.01242418101128294,1,0,Real,ideal,2019_Mar_17_1935,Face-Threshold,3.0.4,59.88807661207037,
601,4,0.01176170285435621,0,0,Real,ideal,2019_Mar_17_1935,Face-Threshold,3.0.4,59.88807661207037,
602,4,0.012864905517522285,1,0,Real,ideal,2019_Mar_17_1935,Face-Threshold,3.0.4,59.88807661207037,
603,4,0.01221100119384215,1,0,Real,ideal,2019_Mar_17_1935,Face-Threshold,3.0.4,59.88807661207037,
604,4,0.011547889878584752,1,0,Real,ideal,2019_Mar_17_1935,Face-Threshold,3.0.4,59.88807661207037,
605,4,0.010874320490340317,1,0,Real,ideal,2019_Mar_17_1935,Face-Threshold,3.0.4,59.88807661207037,
606,4,0.010189004221777959,0,0,Real,ideal,2019_Mar_17_1935,Face-Threshold,3.0.4,59.88807661207037,
607,4,0.011334556059095183,1,0,Real,ideal,2019_Mar_17_1935,Face-Threshold,3.0.4,59.88807661207037,
608,4,0.010659874492919455,1,0,Real,ideal,2019_Mar_17_1935,Face-Threshold,3.0.4,59.88807661207037,
609,4,0.009977388147900529,1,0,Real,ideal,2019_Mar_17_1935,Face-Threshold,3.0.4,59.88807661207037,
610,4,0.009397597287125123,1,0,Real,ideal,2019_Mar_17_1935,Face-Threshold,3.0.4,59.88807661207037,
611,4,0.008821757386933748,1,0,Real,ideal,2019_Mar_17_1935,Face-Threshold,3.0.4,59.88807661207037,
612,4,0.008248879274015075,0,0,Real,ideal,2019_Mar_17_1935,Face-Threshold,3.0.4,59.88807661207037,
613,4,0.009220847166659815,0,0,Real,ideal,2019_Mar_17_1935,Face-Threshold,3.0.4,59.88807661207037,
614,4,0.01023189059704703,0,0,Real,ideal,2019_Mar_17_1935,Face-Threshold,3.0.4,59.88807661207037,
615,4,0.011363818293151667,0,0,Real,ideal,2019_Mar_17_1935,Face-Threshold,3.0.4,59.88807661207037,
616,4,0.012457600328783971,1,0,Real,ideal,2019_Mar_17_1935,Face-Threshold,3.0.4,59.88807661207037,
617,4,0.011810263137011945,1,0,Real,ideal,2019_Mar_17_1935,Face-Threshold,3.0.4,59.88807661207037,
618,4,0.011153181965976922,0,0,Real,ideal,2019_Mar_17_1935,Face-Threshold,3.0.4,59.88807661207037,
619,4,0.012248966713592518,0,0,Real,ideal,2019_Mar_17_1935,Face-Threshold,3.0.4,59.88807661207037,
620,4,0.013311821330487,1,0,Real,ideal,2019_Mar_17_1935,Face-Threshold,3.0.4,59.88807661207037,
621,4,0.012680393733300113,1,0,Real,ideal,2019_Mar_17_1935,Face-Threshold,3.0.4,59.88807661207037,
622,4,0.012040896479493787,0,0,Real,ideal,2019_Mar_17_1935,Face-Threshold,3.0.4,59.88807661207037,
623,4,0.013104990283399204,1,0,Real,ideal,2019_Mar_17_1935,Face-Threshold,3.0.4,59.88807661207037,
624,4,0.01247337198433085,1,0,Real,ideal,2019_Mar_17_1935,Face-Threshold,3.0.4,59.88807661207037,
625,4,0.011833345516080243,1,0,Real,ideal,2019_Mar_17_1935,Face-Threshold,3.0.4,59.88807661207037,
626,4,0.011183743181567507,0,0,Real,ideal,2019_Mar_17_1935,Face-Threshold,3.0.4,59.88807661207037,
627,4,0.012266940393577161,0,0,Real,ideal,2019_Mar_17_1935,Face-Threshold,3.0.4,59.88807661207037,
628,4,0.013317808799541989,0,0,Real,ideal,2019_Mar_17_1935,Face-Threshold,3.0.4,59.88807661207037,
629,4,0.01434200221401881,0,0,Real,ideal,2019_Mar_17_1935,Face-Threshold,3.0.4,59.88807661207037,
630,4,0.015344835585761968,1,0,Real,ideal,2019_Mar_17_1935,Face-Threshold,3.0.4,59.88807661207037,
631,4,0.014717115554182023,1,0,Real,ideal,2019_Mar_17_1935,Face-Threshold,3.0.4,59.88807661207037,
632,4,0.014111288403989758,0,0,Real,ideal,2019_Mar_17_1935,Face-Threshold,3.0.4,59.88807661207037,
633,4,0.015113822152610992,0,0,Real,ideal,2019_Mar_17_1935,Face-Threshold,3.0.4,59.88807661207037,
634,4,0.016181072366653323,0,0,Real,ideal,2019_Mar_17_1935,Face-Threshold,3.0.4,59.88807661207037,
635,4,0.017234067644179923,1,0,Real,ideal,2019_Mar_17_1935,Face-Threshold,3.0.4,59.88807661207037,
636,4,0.01662051040518632,1,0,Real,ideal,2019_Mar_17_1935,Face-Threshold,3.0.4,59.88807661207037,
637,4,0.016006013581792586,0,0,Real,ideal,2019_Mar_17_1935,Face-Threshold,3.0.4,59.88807661207037,
638,4,0.017055726533126425,0,0,Real,ideal,2019_Mar_17_1935,Face-Threshold,3.0.4,59.88807661207037,
639,4,0.018096176870121772,1,0,Real,ideal,2019_Mar_17_1935,Face-Threshold,3.0.4,59.88807661207037,
640,4,0.017487182554799238,0,0,Real,ideal,2019_Mar_17_1935,Face-Threshold,3.0.4,59.88807661207037,
641,4,0.018522902722750534,1,0,Real,ideal,2019_Mar_17_1935,Face-Threshold,3.0.4,59.88807661207037,
642,4,0.017915325714565514,1,0,Real,ideal,2019_Mar_17_1935,Face-Threshold,3.0.4,59.88807661207037,
643,4,0.017309178725438218,1,0,Real,ideal,2019_Mar_17_1935,Face-Threshold,3.0.4,59.88807661207037,
644,4,0.01670336798651026,0,0,Real,ideal,2019_Mar_17_1935,Face-Threshold,3.0.4,59.88807661207037,
645,4,0.017736067491971638,1,0,Real,ideal,2019_Mar_17_1935,Face-Threshold,3.0.4,59.88807661207037,
646,4,0.017132654443331244,0,0,Real,ideal,2019_Mar_17_1935,Face-Threshold,3.0.4,59.88807661207037,
647,4,0.01815994089214394,0,0,Real,ideal,2019_Mar_17_1935,Face-Threshold,3.0.4,59.88807661207037,
648,4,0.019184155820237817,0,0,Real,ideal,2019_Mar_17_1935,Face-Threshold,3.0.4,59.88807661207037,
649,4,0.02024886386337188,1,0,Real,ideal,2019_Mar_17_1935,Face-Threshold,3.0.4,59.88807661207037,
650,4,0.019603267796007157,1,0,Real,ideal,2019_Mar_17_1935,Face-Threshold,3.0.4,59.88807661207037,
651,4,0.019000314975428936,1,0,Real,ideal,2019_Mar_17_1935,Face-Threshold,3.0.4,59.88807661207037,
652,4,0.01840073212820352,1,0,Real,ideal,2019_Mar_17_1935,Face-Threshold,3.0.4,59.88807661207037,
653,4,0.017803449080577266,1,0,Real,ideal,2019_Mar_17_1935,Face-Threshold,3.0.4,59.88807661207037,
654,4,0.0172074032291515,1,0,Real,ideal,2019_Mar_17_1935,Face-Threshold,3.0.4,59.88807661207037,
655,4,0.016611535859100968,0,0,Real,ideal,2019_Mar_17_1935,Face-Threshold,3.0.4,59.88807661207037,
656,4,0.01762751632173551,1,0,Real,ideal,2019_Mar_17_1935,Face-Threshold,3.0.4,59.88807661207037,
657,4,0.017034075082398556,0,0,Real,ideal,2019_Mar_17_1935,Face-Threshold,3.0.4,59.88807661207037,
658,4,0.01804463438865539,1,0,Real,ideal,2019_Mar_17_1935,Face-Threshold,3.0.4,59.88807661207037,
659,4,0.017453067594784613,1,0,Real,ideal,2019_Mar_17_1935,Face-Threshold,3.0.4,59.88807661207037,
660,4,0.01686212445108498,0,0,Real,ideal,2019_Mar_17_1935,Face-Threshold,3.0.4,59.88807661207037,
661,4,0.01786893427824661,1,0,Real,ideal,2019_Mar_17_1935,Face-Threshold,3.0.4,59.88807661207037,
662,4,0.017280060697649036,1,0,Real,ideal,2019_Mar_17_1935,Face-Threshold,3.0.4,59.88807661207037,
663,4,0.01669151137534998,0,0,Real,ideal,2019_Mar_17_1935,Face-Threshold,3.0.4,59.88807661207037,
664,4,0.017694741631987393,0,0,Real,ideal,2019_Mar_17_1935,Face-Threshold,3.0.4,59.88807661207037,
665,4,0.018692913284844043,1,0,Real,ideal,2019_Mar_17_1935,Face-Threshold,3.0.4,59.88807661207037,
666,4,0.0181065757864506,0,0,Real,ideal,2019_Mar_17_1935,Face-Threshold,3.0.4,59.88807661207037,
667,4,0.019101809882745235,1,0,Real,ideal,2019_Mar_17_1935,Face-Threshold,3.0.4,59.88807661207037,
668,4,0.018515960213818572,1,0,Real,ideal,2019_Mar_17_1935,Face-Threshold,3.0.4,59.88807661207037,
669,4,0.01793259859837136,1,0,Real,ideal,2019_Mar_17_1935,Face-Threshold,3.0.4,59.88807661207037,
670,4,0.017350710074929485,1,0,Real,ideal,2019_Mar_17_1935,Face-Threshold,3.0.4,59.88807661207037,
671,4,0.016769284301106316,1,0,Real,ideal,2019_Mar_17_1935,Face-Threshold,3.0.4,59.88807661207037,
672,4,0.016187312142462787,1,0,Real,ideal,2019_Mar_17_1935,Face-Threshold,3.0.4,59.88807661207037,
673,4,0.015603782274221947,1,0,Real,ideal,2019_Mar_17_1935,Face-Threshold,3.0.4,59.88807661207037,
674,4,0.015017677778825081,1,0,Real,ideal,2019_Mar_17_1935,Face-Threshold,3.0.4,59.88807661207037,
675,4,0.014427972722350635,1,0,Real,ideal,2019_Mar_17_1935,Face-Threshold,3.0.4,59.88807661207037,
676,4,0.013858431471585983,0,0,Real,ideal,2019_Mar_17_1935,Face-Threshold,3.0.4,59.88807661207037,
677,4,0.014801409796906126,1,0,Real,ideal,2019_Mar_17_1935,Face-Threshold,3.0.4,59.88807661207037,
678,4,0.014236849931448303,0,0,Real,ideal,2019_Mar_17_1935,Face-Threshold,3.0.4,59.88807661207037,
679,4,0.015170607360990337,1,0,Real,ideal,2019_Mar_17_1935,Face-Threshold,3.0.4,59.88807661207037,
680,4,0.014586115844782518,1,0,Real,ideal,2019_Mar_17_1935,Face-Threshold,3.0.4,59.88807661207037,
681,4,0.014021895571329573,0,0,Real,ideal,2019_Mar_17_1935,Face-Threshold,3.0.4,59.88807661207037,
682,4,0.014955632184531262,0,0,Real,ideal,2019_Mar_17_1935,Face-Threshold,3.0.4,59.88807661207037,
683,4,0.015873309762602317,1,0,Real,ideal,2019_Mar_17_1935,Face-Threshold,3.0.4,59.88807661207037,
684,4,0.015296864745824368,1,0,Real,ideal,2019_Mar_17_1935,Face-Threshold,3.0.4,59.88807661207037,
685,4,0.014717373165027456,1,0,Real,ideal,2019_Mar_17_1935,Face-Threshold,3.0.4,59.88807661207037,
686,4,0.014158217131884282,1,0,Real,ideal,2019_Mar_17_1935,Face-Threshold,3.0.4,59.88807661207037,
687,4,0.01359428713451205,1,0,Real,ideal,2019_Mar_17_1935,Face-Threshold,3.0.4,59.88807661207037,
688,4,0.013024670589266027,1,0,Real,ideal,2019_Mar_17_1935,Face-Threshold,3.0.4,59.88807661207037,
689,4,0.012448436696302731,1,0,Real,ideal,2019_Mar_17_1935,Face-Threshold,3.0.4,59.88807661207037,
690,4,0.01186463352150316,0,0,Real,ideal,2019_Mar_17_1935,Face-Threshold,3.0.4,59.88807661207037,
691,4,0.012836242068771223,1,0,Real,ideal,2019_Mar_17_1935,Face-Threshold,3.0.4,59.88807661207037,
692,4,0.012259555938574002,0,0,Real,ideal,2019_Mar_17_1935,Face-Threshold,3.0.4,59.88807661207037,
693,4,0.013218354861948181,0,0,Real,ideal,2019_Mar_17_1935,Face-Threshold,3.0.4,59.88807661207037,
694,4,0.014153393726584251,1,0,Real,ideal,2019_Mar_17_1935,Face-Threshold,3.0.4,59.88807661207037,
695,4,0.013595118082373084,0,0,Real,ideal,2019_Mar_17_1935,Face-Threshold,3.0.4,59.88807661207037,
696,4,0.01452004668727859,0,0,Real,ideal,2019_Mar_17_1935,Face-Threshold,3.0.4,59.88807661207037,
697,4,0.0154274151869246,1,0,Real,ideal,2019_Mar_17_1935,Face-Threshold,3.0.4,59.88807661207037,
698,4,0.014858575878480745,1,0,Real,ideal,2019_Mar_17_1935,Face-Threshold,3.0.4,59.88807661207037,
699,4,0.014309964403118353,1,0,Real,ideal,2019_Mar_17_1935,Face-Threshold,3.0.4,59.88807661207037,
700,4,0.013756923172874025,1,0,Real,ideal,2019_Mar_17_1935,Face-Threshold,3.0.4,59.88807661207037,
701,4,0.0131985736583657,1,0,Real,ideal,2019_Mar_17_1935,Face-Threshold,3.0.4,59.88807661207037,
702,4,0.012634020589963268,0,0,Real,ideal,2019_Mar_17_1935,Face-Threshold,3.0.4,59.88807661207037,
703,4,0.013571713134108931,0,0,Real,ideal,2019_Mar_17_1935,Face-Threshold,3.0.4,59.88807661207037,
704,4,0.014487732824345415,0,0,Real,ideal,2019_Mar_17_1935,Face-Threshold,3.0.4,59.88807661207037,
705,4,0.015386326681037218,1,0,Real,ideal,2019_Mar_17_1935,Face-Threshold,3.0.4,59.88807661207037,
706,4,0.01482303701148903,0,0,Real,ideal,2019_Mar_17_1935,Face-Threshold,3.0.4,59.88807661207037,
707,4,0.015714200172746592,0,0,Real,ideal,2019_Mar_17_1935,Face-Threshold,3.0.4,59.88807661207037,
708,4,0.016666849785649557,1,0,Real,ideal,2019_Mar_17_1935,Face-Threshold,3.0.4,59.88807661207037,
709,4,0.016112663899498753,0,0,Real,ideal,2019_Mar_17_1935,Face-Threshold,3.0.4,59.88807661207037,
710,4,0.017058797699701145,1,0,Real,ideal,2019_Mar_17_1935,Face-Threshold,3.0.4,59.88807661207037,
711,4,0.01650726584063765,1,0,Real,ideal,2019_Mar_17_1935,Face-Threshold,3.0.4,59.88807661207037,
712,4,0.015954861479250418,1,0,Real,ideal,2019_Mar_17_1935,Face-Threshold,3.0.4,59.88807661207037,
713,4,0.015400670550927364,1,0,Real,ideal,2019_Mar_17_1935,Face-Threshold,3.0.4,59.88807661207037,
714,4,0.014843772979420258,1,0,Real,ideal,2019_Mar_17_1935,Face-Threshold,3.0.4,59.88807661207037,
715,4,0.014306683924680819,1,0,Real,ideal,2019_Mar_17_1935,Face-Threshold,3.0.4,59.88807661207037,
716,4,0.013765280950665051,1,0,Real,ideal,2019_Mar_17_1935,Face-Threshold,3.0.4,59.88807661207037,
717,4,0.013218721107013887,1,0,Real,ideal,2019_Mar_17_1935,Face-Threshold,3.0.4,59.88807661207037,
718,4,0.012666145517972988,1,0,Real,ideal,2019_Mar_17_1935,Face-Threshold,3.0.4,59.88807661207037,
719,4,0.012106676792685983,1,0,Real,ideal,2019_Mar_17_1935,Face-Threshold,3.0.4,59.88807661207037,
720,4,0.01153941635702016,0,0,Real,ideal,2019_Mar_17_1935,Face-Threshold,3.0.4,59.88807661207037,
721,4,0.01248416741208526,1,0,Real,ideal,2019_Mar_17_1935,Face-Threshold,3.0.4,59.88807661207037,
722,4,0.011924043524912609,0,0,Real,ideal,2019_Mar_17_1935,Face-Threshold,3.0.4,59.88807661207037,
723,4,0.012856011648405982,0,0,Real,ideal,2019_Mar_17_1935,Face-Threshold,3.0.4,59.88807661207037,
724,4,0.013763812040448409,0,0,Real,ideal,2019_Mar_17_1935,Face-Threshold,3.0.4,59.88807661207037,
725,4,0.014651649099425068,1,0,Real,ideal,2019_Mar_17_1935,Face-Threshold,3.0.4,59.88807661207037,
726,4,0.014120114840391926,0,0,Real,ideal,2019_Mar_17_1935,Face-Threshold,3.0.4,59.88807661207037,
727,4,0.014999397966903902,1,0,Real,ideal,2019_Mar_17_1935,Face-Threshold,3.0.4,59.88807661207037,
728,4,0.01447211886010992,0,0,Real,ideal,2019_Mar_17_1935,Face-Threshold,3.0.4,59.88807661207037,
729,4,0.015343510079694395,0,0,Real,ideal,2019_Mar_17_1935,Face-Threshold,3.0.4,59.88807661207037,
730,4,0.016273615189619867,1,0,Real,ideal,2019_Mar_17_1935,Face-Threshold,3.0.4,59.88807661207037,
731,4,0.015733464728878724,1,0,Real,ideal,2019_Mar_17_1935,Face-Threshold,3.0.4,59.88807661207037,
732,4,0.015191241536935754,1,0,Real,ideal,2019_Mar_17_1935,Face-Threshold,3.0.4,59.88807661207037,
733,4,0.014646063632339848,1,0,Real,ideal,2019_Mar_17_1935,Face-Threshold,3.0.4,59.88807661207037,
734,4,0.014119986118636754,1,0,Real,ideal,2019_Mar_17_1935,Face-Threshold,3.0.4,59.88807661207037,
735,4,0.013589440155126892,1,0,Real,ideal,2019_Mar_17_1935,Face-Threshold,3.0.4,59.88807661207037,
736,4,0.013053615238629288,0,0,Real,ideal,2019_Mar_17_1935,Face-Threshold,3.0.4,59.88807661207037,
737,4,0.013942524489855834,0,0,Real,ideal,2019_Mar_17_1935,Face-Threshold,3.0.4,59.88807661207037,
738,4,0.014812734630005722,0,0,Real,ideal,2019_Mar_17_1935,Face-Threshold,3.0.4,59.88807661207037,
739,4,0.01566806578812252,1,0,Real,ideal,2019_Mar_17_1935,Face-Threshold,3.0.4,59.88807661207037,
740,4,0.015130896871660263,1,0,Real,ideal,2019_Mar_17_1935,Face-Threshold,3.0.4,59.88807661207037,
741,4,0.014590716935358045,1,0,Real,ideal,2019_Mar_17_1935,Face-Threshold,3.0.4,59.88807661207037,
742,4,0.014069385690235192,0,0,Real,ideal,2019_Mar_17_1935,Face-Threshold,3.0.4,59.88807661207037,
743,4,0.0149318705625313,1,0,Real,ideal,2019_Mar_17_1935,Face-Threshold,3.0.4,59.88807661207037,
744,4,0.014414720168736739,0,0,Real,ideal,2019_Mar_17_1935,Face-Threshold,3.0.4,59.88807661207037,
745,4,0.01526946835619232,1,0,Real,ideal,2019_Mar_17_1935,Face-Threshold,3.0.4,59.88807661207037,
746,4,0.014733674131884422,1,0,Real,ideal,2019_Mar_17_1935,Face-Threshold,3.0.4,59.88807661207037,
747,4,0.014216813372885911,1,0,Real,ideal,2019_Mar_17_1935,Face-Threshold,3.0.4,59.88807661207037,
748,4,0.013695720672994516,1,0,Real,ideal,2019_Mar_17_1935,Face-Threshold,3.0.4,59.88807661207037,
749,4,0.013169613398939059,1,0,Real,ideal,2019_Mar_17_1935,Face-Threshold,3.0.4,59.88807661207037,
750,4,0.012637694034638547,1,0,Real,ideal,2019_Mar_17_1935,Face-Threshold,3.0.4,59.88807661207037,
751,4,0.012099147863182239,0,0,Real,ideal,2019_Mar_17_1935,Face-Threshold,3.0.4,59.88807661207037,
752,4,0.01299474447919946,1,0,Real,ideal,2019_Mar_17_1935,Face-Threshold,3.0.4,59.88807661207037,
753,4,0.012462380060485306,1,0,Real,ideal,2019_Mar_17_1935,Face-Threshold,3.0.4,59.88807661207037,
754,4,0.01192314320781114,1,0,Real,ideal,2019_Mar_17_1935,Face-Threshold,3.0.4,59.88807661207037,
755,4,0.011376197685972186,1,0,Real,ideal,2019_Mar_17_1935,Face-Threshold,3.0.4,59.88807661207037,
756,4,0.010820684533710156,0,0,Real,ideal,2019_Mar_17_1935,Face-Threshold,3.0.4,59.88807661207037,
757,4,0.011747376889900324,0,0,Real,ideal,2019_Mar_17_1935,Face-Threshold,3.0.4,59.88807661207037,
758,4,0.012646184922810985,0,0,Real,ideal,2019_Mar_17_1935,Face-Threshold,3.0.4,59.88807661207037,
759,4,0.013521270102917718,0,0,Real,ideal,2019_Mar_17_1935,Face-Threshold,3.0.4,59.88807661207037,
760,4,0.014376550105569458,1,0,Real,ideal,2019_Mar_17_1935,Face-Threshold,3.0.4,59.88807661207037,
761,4,0.013864934551979291,1,0,Real,ideal,2019_Mar_17_1935,Face-Threshold,3.0.4,59.88807661207037,
762,4,0.013348651107516915,0,0,Real,ideal,2019_Mar_17_1935,Face-Threshold,3.0.4,59.88807661207037,
763,4,0.014204410353483007,1,0,Real,ideal,2019_Mar_17_1935,Face-Threshold,3.0.4,59.88807661207037,
764,4,0.013692894860950086,0,0,Real,ideal,2019_Mar_17_1935,Face-Threshold,3.0.4,59.88807661207037,
765,4,0.014539960621582734,1,0,Real,ideal,2019_Mar_17_1935,Face-Threshold,3.0.4,59.88807661207037,
766,4,0.014032847097071324,0,0,Real,ideal,2019_Mar_17_1935,Face-Threshold,3.0.4,59.88807661207037,
767,4,0.014871840266802161,1,0,Real,ideal,2019_Mar_17_1935,Face-Threshold,3.0.4,59.88807661207037,
768,4,0.014368772661550178,1,0,Real,ideal,2019_Mar_17_1935,Face-Threshold,3.0.4,59.88807661207037,
769,4,0.013861827852310188,1,0,Real,ideal,2019_Mar_17_1935,Face-Threshold,3.0.4,59.88807661207037,
770,4,0.013350264033203482,1,0,Real,ideal,2019_Mar_17_1935,Face-Threshold,3.0.4,59.88807661207037,
771,4,0.012833326004985726,1,0,Real,ideal,2019_Mar_17_1935,Face-Threshold,3.0.4,59.88807661207037,
772,4,0.01231024303692714,0,0,Real,ideal,2019_Mar_17_1935,Face-Threshold,3.0.4,59.88807661207037,
773,4,0.01317961031607398,0,0,Real,ideal,2019_Mar_17_1935,Face-Threshold,3.0.4,59.88807661207037,
774,4,0.014028148343110267,1,0,Real,ideal,2019_Mar_17_1935,Face-Threshold,3.0.4,59.88807661207037,
775,4,0.013521294107020743,1,0,Real,ideal,2019_Mar_17_1935,Face-Threshold,3.0.4,59.88807661207037,
776,4,0.013009356816064202,1,0,Real,ideal,2019_Mar_17_1935,Face-Threshold,3.0.4,59.88807661207037,
777,4,0.01249158015310911,0,0,Real,ideal,2019_Mar_17_1935,Face-Threshold,3.0.4,59.88807661207037,
778,4,0.013351717229609553,1,0,Real,ideal,2019_Mar_17_1935,Face-Threshold,3.0.4,59.88807661207037,
779,4,0.012839473427062764,1,0,Real,ideal,2019_Mar_17_1935,Face-Threshold,3.0.4,59.88807661207037,
780,4,0.012321159137304319,0,0,Real,ideal,2019_Mar_17_1935,Face-Threshold,3.0.4,59.88807661207037,
781,4,0.013182559575225516,0,0,Real,ideal,2019_Mar_17_1935,Face-Threshold,3.0.4,59.88807661207037,
782,4,0.014023407105372532,1,0,Real,ideal,2019_Mar_17_1935,Face-Threshold,3.0.4,59.88807661207037,
783,4,0.01352111288556418,1,0,Real,ideal,2019_Mar_17_1935,Face-Threshold,3.0.4,59.88807661207037,
784,4,0.013013791146396433,1,0,Real,ideal,2019_Mar_17_1935,Face-Threshold,3.0.4,59.88807661207037,
785,4,0.012500698762161977,0,0,Real,ideal,2019_Mar_17_1935,Face-Threshold,3.0.4,59.88807661207037,
786,4,0.013353017447709309,1,0,Real,ideal,2019_Mar_17_1935,Face-Threshold,3.0.4,59.88807661207037,
787,4,0.012845382392479038,1,0,Real,ideal,2019_Mar_17_1935,Face-Threshold,3.0.4,59.88807661207037,
788,4,0.01233174943197897,1,0,Real,ideal,2019_Mar_17_1935,Face-Threshold,3.0.4,59.88807661207037,
789,4,0.01181135755850743,0,0,Real,ideal,2019_Mar_17_1935,Face-Threshold,3.0.4,59.88807661207037,
790,4,0.012677304193997332,0,0,Real,ideal,2019_Mar_17_1935,Face-Threshold,3.0.4,59.88807661207037,
791,4,0.013520810645353973,1,0,Real,ideal,2019_Mar_17_1935,Face-Threshold,3.0.4,59.88807661207037,
792,4,0.013018021058483306,1,0,Real,ideal,2019_Mar_17_1935,Face-Threshold,3.0.4,59.88807661207037,
793,4,0.012509527847443774,1,0,Real,ideal,2019_Mar_17_1935,Face-Threshold,3.0.4,59.88807661207037,
794,4,0.011994584650775186,1,0,Real,ideal,2019_Mar_17_1935,Face-Threshold,3.0.4,59.88807661207037,
795,4,0.011472426936296479,1,0,Real,ideal,2019_Mar_17_1935,Face-Threshold,3.0.4,59.88807661207037,
796,4,0.010942269835944762,1,0,Real,ideal,2019_Mar_17_1935,Face-Threshold,3.0.4,59.88807661207037,
797,4,0.010403305900313062,1,0,Real,ideal,2019_Mar_17_1935,Face-Threshold,3.0.4,59.88807661207037,
798,4,0.00988028244354569,1,0,Real,ideal,2019_Mar_17_1935,Face-Threshold,3.0.4,59.88807661207037,
799,4,0.00942765008874627,0,0,Real,ideal,2019_Mar_17_1935,Face-Threshold,3.0.4,59.88807661207037,
800,4,0.010231356425714225,0,0,Real,ideal,2019_Mar_17_1935,Face-Threshold,3.0.4,59.88807661207037,
801,4,0.011133990572394739,1,0,Real,ideal,2019_Mar_17_1935,Face-Threshold,3.0.4,59.88807661207037,
802,4,0.010601309410109117,1,0,Real,ideal,2019_Mar_17_1935,Face-Threshold,3.0.4,59.88807661207037,
803,4,0.010059355709304038,0,0,Real,ideal,2019_Mar_17_1935,Face-Threshold,3.0.4,59.88807661207037,
804,4,0.010964890985903086,0,0,Real,ideal,2019_Mar_17_1935,Face-Threshold,3.0.4,59.88807661207037,
805,4,0.011840880654949065,1,0,Real,ideal,2019_Mar_17_1935,Face-Threshold,3.0.4,59.88807661207037,
806,4,0.011322418207590557,0,0,Real,ideal,2019_Mar_17_1935,Face-Threshold,3.0.4,59.88807661207037,
807,4,0.012186153398409977,1,0,Real,ideal,2019_Mar_17_1935,Face-Threshold,3.0.4,59.88807661207037,
808,4,0.011674196565167841,1,0,Real,ideal,2019_Mar_17_1935,Face-Threshold,3.0.4,59.88807661207037,
809,4,0.011154670370241343,1,0,Real,ideal,2019_Mar_17_1935,Face-Threshold,3.0.4,59.88807661207037,
810,4,0.010626798195963738,1,0,Real,ideal,2019_Mar_17_1935,Face-Threshold,3.0.4,59.88807661207037,
811,4,0.010089780170898968,0,0,Real,ideal,2019_Mar_17_1935,Face-Threshold,3.0.4,59.88807661207037,
812,4,0.010986987549493565,1,0,Real,ideal,2019_Mar_17_1935,Face-Threshold,3.0.4,59.88807661207037,
813,4,0.010457753536570955,1,0,Real,ideal,2019_Mar_17_1935,Face-Threshold,3.0.4,59.88807661207037,
814,4,0.009933354614621526,1,0,Real,ideal,2019_Mar_17_1935,Face-Threshold,3.0.4,59.88807661207037,
815,4,0.009488182137766976,1,0,Real,ideal,2019_Mar_17_1935,Face-Threshold,3.0.4,59.88807661207037,
816,4,0.009046487735605707,1,0,Real,ideal,2019_Mar_17_1935,Face-Threshold,3.0.4,59.88807661207037,
817,4,0.008607680416295782,1,0,Real,ideal,2019_Mar_17_1935,Face-Threshold,3.0.4,59.88807661207037,
818,4,0.008171176369216673,1,0,Real,ideal,2019_Mar_17_1935,Face-Threshold,3.0.4,59.88807661207037,
819,4,0.007736397449573176,0,0,Real,ideal,2019_Mar_17_1935,Face-Threshold,3.0.4,59.88807661207037,
820,4,0.008474661842823764,1,0,Real,ideal,2019_Mar_17_1935,Face-Threshold,3.0.4,59.88807661207037,
821,4,0.008040046801921802,0,0,Real,ideal,2019_Mar_17_1935,Face-Threshold,3.0.4,59.88807661207037,
822,4,0.008777352504165295,0,0,Real,ideal,2019_Mar_17_1935,Face-Threshold,3.0.4,59.88807661207037,
823,4,0.009517500899169057,1,0,Real,ideal,2019_Mar_17_1935,Face-Threshold,3.0.4,59.88807661207037,
824,4,0.009079452168220634,1,0,Real,ideal,2019_Mar_17_1935,Face-Threshold,3.0.4,59.88807661207037,
825,4,0.00864431856563705,1,0,Real,ideal,2019_Mar_17_1935,Face-Threshold,3.0.4,59.88807661207037,
826,4,0.008211525736894001,0,0,Real,ideal,2019_Mar_17_1935,Face-Threshold,3.0.4,59.88807661207037,
827,4,0.008945351517030506,1,0,Real,ideal,2019_Mar_17_1935,Face-Threshold,3.0.4,59.88807661207037,
828,4,0.008512274581056939,0,0,Real,ideal,2019_Mar_17_1935,Face-Threshold,3.0.4,59.88807661207037,
829,4,0.009245917207305637,1,0,Real,ideal,2019_Mar_17_1935,Face-Threshold,3.0.4,59.88807661207037,
830,4,0.008812280245692763,1,0,Real,ideal,2019_Mar_17_1935,Face-Threshold,3.0.4,59.88807661207037,
831,4,0.008381196799306781,1,0,Real,ideal,2019_Mar_17_1935,Face-Threshold,3.0.4,59.88807661207037,
832,4,0.007952102668783434,1,0,Real,ideal,2019_Mar_17_1935,Face-Threshold,3.0.4,59.88807661207037,
833,4,0.007524438443932996,1,0,Real,ideal,2019_Mar_17_1935,Face-Threshold,3.0.4,59.88807661207037,
834,4,0.007097648085175878,0,0,Real,ideal,2019_Mar_17_1935,Face-Threshold,3.0.4,59.88807661207037,
835,4,0.007823727133547356,0,0,Real,ideal,2019_Mar_17_1935,Face-Threshold,3.0.4,59.88807661207037,
836,4,0.008549128760207886,0,0,Real,ideal,2019_Mar_17_1935,Face-Threshold,3.0.4,59.88807661207037,
837,4,0.009276588495926372,1,0,Real,ideal,2019_Mar_17_1935,Face-Threshold,3.0.4,59.88807661207037,
838,4,0.008846502259998279,0,0,Real,ideal,2019_Mar_17_1935,Face-Threshold,3.0.4,59.88807661207037,
839,4,0.009574335691047181,0,0,Real,ideal,2019_Mar_17_1935,Face-Threshold,3.0.4,59.88807661207037,
840,4,0.010370048891656727,0,0,Real,ideal,2019_Mar_17_1935,Face-Threshold,3.0.4,59.88807661207037,
841,4,0.011232686790447768,0,0,Real,ideal,2019_Mar_17_1935,Face-Threshold,3.0.4,59.88807661207037,
842,4,0.012068385699582518,1,0,Real,ideal,2019_Mar_17_1935,Face-Threshold,3.0.4,59.88807661207037,
843,4,0.011573116514226892,1,0,Real,ideal,2019_Mar_17_1935,Face-Threshold,3.0.4,59.88807661207037,
844,4,0.011070440488843564,1,0,Real,ideal,2019_Mar_17_1935,Face-Threshold,3.0.4,59.88807661207037,
845,4,0.010559629513733154,1,0,Real,ideal,2019_Mar_17_1935,Face-Threshold,3.0.4,59.88807661207037,
846,4,0.010039933611177734,1,0,Real,ideal,2019_Mar_17_1935,Face-Threshold,3.0.4,59.88807661207037,
847,4,0.009601886378068789,0,0,Real,ideal,2019_Mar_17_1935,Face-Threshold,3.0.4,59.88807661207037,
848,4,0.010396016307340106,0,0,Real,ideal,2019_Mar_17_1935,Face-Threshold,3.0.4,59.88807661207037,
849,4,0.011251085422218157,1,0,Real,ideal,2019_Mar_17_1935,Face-Threshold,3.0.4,59.88807661207037,
850,4,0.01074598853600503,1,0,Real,ideal,2019_Mar_17_1935,Face-Threshold,3.0.4,59.88807661207037,
851,4,0.010232333494335374,0,0,Real,ideal,2019_Mar_17_1935,Face-Threshold,3.0.4,59.88807661207037,
852,4,0.011090143374760011,1,0,Real,ideal,2019_Mar_17_1935,Face-Threshold,3.0.4,59.88807661207037,
853,4,0.010583735503071984,1,0,Real,ideal,2019_Mar_17_1935,Face-Threshold,3.0.4,59.88807661207037,
854,4,0.010068557810290951,1,0,Real,ideal,2019_Mar_17_1935,Face-Threshold,3.0.4,59.88807661207037,
855,4,0.009628881291649946,0,0,Real,ideal,2019_Mar_17_1935,Face-Threshold,3.0.4,59.88807661207037,
856,4,0.01042143323879971,0,0,Real,ideal,2019_Mar_17_1935,Face-Threshold,3.0.4,59.88807661207037,
857,4,0.011269068101341734,1,0,Real,ideal,2019_Mar_17_1935,Face-Threshold,3.0.4,59.88807661207037,
858,4,0.010768287888691871,1,0,Real,ideal,2019_Mar_17_1935,Face-Threshold,3.0.4,59.88807661207037,
859,4,0.010259058629278547,0,0,Real,ideal,2019_Mar_17_1935,Face-Threshold,3.0.4,59.88807661207037,
860,4,0.01110940940125757,0,0,Real,ideal,2019_Mar_17_1935,Face-Threshold,3.0.4,59.88807661207037,
861,4,0.011932956217807739,1,0,Real,ideal,2019_Mar_17_1935,Face-Threshold,3.0.4,59.88807661207037,
862,4,0.011445075191235915,0,0,Real,ideal,2019_Mar_17_1935,Face-Threshold,3.0.4,59.88807661207037,
863,4,0.01225751674376549,1,0,Real,ideal,2019_Mar_17_1935,Face-Threshold,3.0.4,59.88807661207037,
864,4,0.011775552973654152,1,0,Real,ideal,2019_Mar_17_1935,Face-Threshold,3.0.4,59.88807661207037,
865,4,0.011286647088181626,1,0,Real,ideal,2019_Mar_17_1935,Face-Threshold,3.0.4,59.88807661207037,
866,4,0.010790108908939,0,0,Real,ideal,2019_Mar_17_1935,Face-Threshold,3.0.4,59.88807661207037,
867,4,0.011618247043181387,1,0,Real,ideal,2019_Mar_17_1935,Face-Threshold,3.0.4,59.88807661207037,
868,4,0.011128251321989968,1,0,Real,ideal,2019_Mar_17_1935,Face-Threshold,3.0.4,59.88807661207037,
869,4,0.010630421229287507,1,0,Real,ideal,2019_Mar_17_1935,Face-Threshold,3.0.4,59.88807661207037,
870,4,0.010124043344618652,1,0,Real,ideal,2019_Mar_17_1935,Face-Threshold,3.0.4,59.88807661207037,
871,4,0.009681266280479134,1,0,Real,ideal,2019_Mar_17_1935,Face-Threshold,3.0.4,59.88807661207037,
872,4,0.009263741975038722,0,0,Real,ideal,2019_Mar_17_1935,Face-Threshold,3.0.4,59.88807661207037,
873,4,0.009969388152075515,1,0,Real,ideal,2019_Mar_17_1935,Face-Threshold,3.0.4,59.88807661207037,
874,4,0.009550607163488128,1,0,Real,ideal,2019_Mar_17_1935,Face-Threshold,3.0.4,59.88807661207037,
875,4,0.00913523843911447,1,0,Real,ideal,2019_Mar_17_1935,Face-Threshold,3.0.4,59.88807661207037,
876,4,0.00872275739825773,0,0,Real,ideal,2019_Mar_17_1935,Face-Threshold,3.0.4,59.88807661207037,
877,4,0.009420984075998187,0,0,Real,ideal,2019_Mar_17_1935,Face-Threshold,3.0.4,59.88807661207037,
878,4,0.010150937749114602,1,0,Real,ideal,2019_Mar_17_1935,Face-Threshold,3.0.4,59.88807661207037,
879,4,0.009706686184387095,0,0,Real,ideal,2019_Mar_17_1935,Face-Threshold,3.0.4,59.88807661207037,
880,4,0.010494536517597047,0,0,Real,ideal,2019_Mar_17_1935,Face-Threshold,3.0.4,59.88807661207037,
881,4,0.011320640773157087,1,0,Real,ideal,2019_Mar_17_1935,Face-Threshold,3.0.4,59.88807661207037,
882,4,0.010832370368905955,1,0,Real,ideal,2019_Mar_17_1935,Face-Threshold,3.0.4,59.88807661207037,
883,4,0.010335963037538365,1,0,Real,ideal,2019_Mar_17_1935,Face-Threshold,3.0.4,59.88807661207037,
884,4,0.009861532170413218,0,0,Real,ideal,2019_Mar_17_1935,Face-Threshold,3.0.4,59.88807661207037,
885,4,0.010675167621607279,1,0,Real,ideal,2019_Mar_17_1935,Face-Threshold,3.0.4,59.88807661207037,
886,4,0.010177287632184825,1,0,Real,ideal,2019_Mar_17_1935,Face-Threshold,3.0.4,59.88807661207037,
887,4,0.009731610022183035,1,0,Real,ideal,2019_Mar_17_1935,Face-Threshold,3.0.4,59.88807661207037,
888,4,0.009320453467050654,0,0,Real,ideal,2019_Mar_17_1935,Face-Threshold,3.0.4,59.88807661207037,
889,4,0.01001848863290046,1,0,Real,ideal,2019_Mar_17_1935,Face-Threshold,3.0.4,59.88807661207037,
890,4,0.009602728873475408,1,0,Real,ideal,2019_Mar_17_1935,Face-Threshold,3.0.4,59.88807661207037,
891,4,0.009193701506070046,0,0,Real,ideal,2019_Mar_17_1935,Face-Threshold,3.0.4,59.88807661207037,
892,4,0.009885095510322545,1,0,Real,ideal,2019_Mar_17_1935,Face-Threshold,3.0.4,59.88807661207037,
893,4,0.009474865417935602,0,0,Real,ideal,2019_Mar_17_1935,Face-Threshold,3.0.4,59.88807661207037,
894,4,0.010203108078991385,1,0,Real,ideal,2019_Mar_17_1935,Face-Threshold,3.0.4,59.88807661207037,
895,4,0.009756051406093744,0,0,Real,ideal,2019_Mar_17_1935,Face-Threshold,3.0.4,59.88807661207037,
896,4,0.010540794787448432,1,0,Real,ideal,2019_Mar_17_1935,Face-Threshold,3.0.4,59.88807661207037,
897,4,0.010045532705748109,1,0,Real,ideal,2019_Mar_17_1935,Face-Threshold,3.0.4,59.88807661207037,
898,4,0.009628039052874293,0,0,Real,ideal,2019_Mar_17_1935,Face-Threshold,3.0.4,59.88807661207037,
899,4,0.010384657230820507,1,0,Real,ideal,2019_Mar_17_1935,Face-Threshold,3.0.4,59.88807661207037,
900,4,0.009908202747587663,1,0,Real,ideal,2019_Mar_17_1935,Face-Threshold,3.0.4,59.88807661207037,
901,4,0.009501035464508312,1,0,Real,ideal,2019_Mar_17_1935,Face-Threshold,3.0.4,59.88807661207037,
902,4,0.009097155116077366,1,0,Real,ideal,2019_Mar_17_1935,Face-Threshold,3.0.4,59.88807661207037,
903,4,0.008696064831660993,1,0,Real,ideal,2019_Mar_17_1935,Face-Threshold,3.0.4,59.88807661207037,
904,4,0.008297274105636118,1,0,Real,ideal,2019_Mar_17_1935,Face-Threshold,3.0.4,59.88807661207037,
905,4,0.007900297628276612,1,0,Real,ideal,2019_Mar_17_1935,Face-Threshold,3.0.4,59.88807661207037,
906,4,0.007504654136706715,1,0,Real,ideal,2019_Mar_17_1935,Face-Threshold,3.0.4,59.88807661207037,
907,4,0.007109865281818353,1,0,Real,ideal,2019_Mar_17_1935,Face-Threshold,3.0.4,59.88807661207037,
908,4,0.006715454507136578,1,0,Real,ideal,2019_Mar_17_1935,Face-Threshold,3.0.4,59.88807661207037,
909,4,0.006320945935684705,0,0,Real,ideal,2019_Mar_17_1935,Face-Threshold,3.0.4,59.88807661207037,
910,4,0.006993586150308817,1,0,Real,ideal,2019_Mar_17_1935,Face-Threshold,3.0.4,59.88807661207037,
911,4,0.006600294449115002,0,0,Real,ideal,2019_Mar_17_1935,Face-Threshold,3.0.4,59.88807661207037,
912,4,0.007270283681554163,0,0,Real,ideal,2019_Mar_17_1935,Face-Threshold,3.0.4,59.88807661207037,
913,4,0.007938220797841844,1,0,Real,ideal,2019_Mar_17_1935,Face-Threshold,3.0.4,59.88807661207037,
914,4,0.007545726365232319,1,0,Real,ideal,2019_Mar_17_1935,Face-Threshold,3.0.4,59.88807661207037,
915,4,0.007154135954713647,1,0,Real,ideal,2019_Mar_17_1935,Face-Threshold,3.0.4,59.88807661207037,
916,4,0.0067629804619255,1,0,Real,ideal,2019_Mar_17_1935,Face-Threshold,3.0.4,59.88807661207037,
917,4,0.0063717915891847166,1,0,Real,ideal,2019_Mar_17_1935,Face-Threshold,3.0.4,59.88807661207037,
918,4,0.005980100762523935,1,0,Real,ideal,2019_Mar_17_1935,Face-Threshold,3.0.4,59.88807661207037,
919,4,0.005587438049452942,1,0,Real,ideal,2019_Mar_17_1935,Face-Threshold,3.0.4,59.88807661207037,
920,4,0.0051933310737085625,0,0,Real,ideal,2019_Mar_17_1935,Face-Threshold,3.0.4,59.88807661207037,
921,4,0.005867579286834151,1,0,Real,ideal,2019_Mar_17_1935,Face-Threshold,3.0.4,59.88807661207037,
922,4,0.005475639443395075,0,0,Real,ideal,2019_Mar_17_1935,Face-Threshold,3.0.4,59.88807661207037,
923,4,0.006145606590317501,1,0,Real,ideal,2019_Mar_17_1935,Face-Threshold,3.0.4,59.88807661207037,
924,4,0.005755579647402365,1,0,Real,ideal,2019_Mar_17_1935,Face-Threshold,3.0.4,59.88807661207037,
925,4,0.0053643217091191575,1,0,Real,ideal,2019_Mar_17_1935,Face-Threshold,3.0.4,59.88807661207037,
926,4,0.004971363551384694,1,0,Real,ideal,2019_Mar_17_1935,Face-Threshold,3.0.4,59.88807661207037,
927,4,0.004592801905419122,1,0,Real,ideal,2019_Mar_17_1935,Face-Threshold,3.0.4,59.88807661207037,
928,4,0.004211749076317481,0,0,Real,ideal,2019_Mar_17_1935,Face-Threshold,3.0.4,59.88807661207037,
929,4,0.0048415635410032215,1,0,Real,ideal,2019_Mar_17_1935,Face-Threshold,3.0.4,59.88807661207037,
930,4,0.00446309057188056,0,0,Real,ideal,2019_Mar_17_1935,Face-Threshold,3.0.4,59.88807661207037,
931,4,0.005088197890625951,1,0,Real,ideal,2019_Mar_17_1935,Face-Threshold,3.0.4,59.88807661207037,
932,4,0.004695637391488455,1,0,Real,ideal,2019_Mar_17_1935,Face-Threshold,3.0.4,59.88807661207037,
933,4,0.004317131313944594,0,0,Real,ideal,2019_Mar_17_1935,Face-Threshold,3.0.4,59.88807661207037,
934,4,0.004942546992351457,0,0,Real,ideal,2019_Mar_17_1935,Face-Threshold,3.0.4,59.88807661207037,
935,4,0.005559323165016519,1,0,Real,ideal,2019_Mar_17_1935,Face-Threshold,3.0.4,59.88807661207037,
936,4,0.005171071851734044,0,0,Real,ideal,2019_Mar_17_1935,Face-Threshold,3.0.4,59.88807661207037,
937,4,0.005835328941630288,0,0,Real,ideal,2019_Mar_17_1935,Face-Threshold,3.0.4,59.88807661207037,
938,4,0.006492703695630209,1,0,Real,ideal,2019_Mar_17_1935,Face-Threshold,3.0.4,59.88807661207037,
939,4,0.0061092601014614,0,0,Real,ideal,2019_Mar_17_1935,Face-Threshold,3.0.4,59.88807661207037,
940,4,0.0067634205501128225,0,0,Real,ideal,2019_Mar_17_1935,Face-Threshold,3.0.4,59.88807661207037,
941,4,0.0074139933285972265,1,0,Real,ideal,2019_Mar_17_1935,Face-Threshold,3.0.4,59.88807661207037,
942,4,0.007032657897700745,0,0,Real,ideal,2019_Mar_17_1935,Face-Threshold,3.0.4,59.88807661207037,
943,4,0.007681377027080535,1,0,Real,ideal,2019_Mar_17_1935,Face-Threshold,3.0.4,59.88807661207037,
944,4,0.007300586717980978,1,0,Real,ideal,2019_Mar_17_1935,Face-Threshold,3.0.4,59.88807661207037,
945,4,0.006920413145746568,1,0,Real,ideal,2019_Mar_17_1935,Face-Threshold,3.0.4,59.88807661207037,
946,4,0.006540413137100881,0,0,Real,ideal,2019_Mar_17_1935,Face-Threshold,3.0.4,59.88807661207037,
947,4,0.00718783333404624,0,0,Real,ideal,2019_Mar_17_1935,Face-Threshold,3.0.4,59.88807661207037,
948,4,0.007833186305421028,0,0,Real,ideal,2019_Mar_17_1935,Face-Threshold,3.0.4,59.88807661207037,
949,4,0.00847867088359322,0,0,Real,ideal,2019_Mar_17_1935,Face-Threshold,3.0.4,59.88807661207037,
950,4,0.009126462425473242,1,0,Real,ideal,2019_Mar_17_1935,Face-Threshold,3.0.4,59.88807661207037,
951,4,0.008743347461507761,1,0,Real,ideal,2019_Mar_17_1935,Face-Threshold,3.0.4,59.88807661207037,
952,4,0.008362524882428224,0,0,Real,ideal,2019_Mar_17_1935,Face-Threshold,3.0.4,59.88807661207037,
953,4,0.009007739740805099,0,0,Real,ideal,2019_Mar_17_1935,Face-Threshold,3.0.4,59.88807661207037,
954,4,0.009657037429231144,1,0,Real,ideal,2019_Mar_17_1935,Face-Threshold,3.0.4,59.88807661207037,
955,4,0.0092720005065096,0,0,Real,ideal,2019_Mar_17_1935,Face-Threshold,3.0.4,59.88807661207037,
956,4,0.00992259637078409,0,0,Real,ideal,2019_Mar_17_1935,Face-Threshold,3.0.4,59.88807661207037,
957,4,0.010695306628319953,1,0,Real,ideal,2019_Mar_17_1935,Face-Threshold,3.0.4,59.88807661207037,
958,4,0.01022906859359321,1,0,Real,ideal,2019_Mar_17_1935,Face-Threshold,3.0.4,59.88807661207037,
959,4,0.009800730040530309,1,0,Real,ideal,2019_Mar_17_1935,Face-Threshold,3.0.4,59.88807661207037,
960,4,0.00941643707802231,1,0,Real,ideal,2019_Mar_17_1935,Face-Threshold,3.0.4,59.88807661207037,
961,4,0.009035204935148713,1,0,Real,ideal,2019_Mar_17_1935,Face-Threshold,3.0.4,59.88807661207037,
962,4,0.008656589202615458,1,0,Real,ideal,2019_Mar_17_1935,Face-Threshold,3.0.4,59.88807661207037,
963,4,0.008280151111664663,1,0,Real,ideal,2019_Mar_17_1935,Face-Threshold,3.0.4,59.88807661207037,
964,4,0.007905456544336817,1,0,Real,ideal,2019_Mar_17_1935,Face-Threshold,3.0.4,59.88807661207037,
965,4,0.007532075060666096,1,0,Real,ideal,2019_Mar_17_1935,Face-Threshold,3.0.4,59.88807661207037,
966,4,0.0071595789395181575,0,0,Real,ideal,2019_Mar_17_1935,Face-Threshold,3.0.4,59.88807661207037,
967,4,0.007792982700913734,1,0,Real,ideal,2019_Mar_17_1935,Face-Threshold,3.0.4,59.88807661207037,
968,4,0.007420887613106372,1,0,Real,ideal,2019_Mar_17_1935,Face-Threshold,3.0.4,59.88807661207037,
969,4,0.007049550783292752,0,0,Real,ideal,2019_Mar_17_1935,Face-Threshold,3.0.4,59.88807661207037,
970,4,0.007681192960607874,0,0,Real,ideal,2019_Mar_17_1935,Face-Threshold,3.0.4,59.88807661207037,
971,4,0.008312579789685762,0,0,Real,ideal,2019_Mar_17_1935,Face-Threshold,3.0.4,59.88807661207037,
972,4,0.008945800127480558,0,0,Real,ideal,2019_Mar_17_1935,Face-Threshold,3.0.4,59.88807661207037,
973,4,0.009582931853099372,1,0,Real,ideal,2019_Mar_17_1935,Face-Threshold,3.0.4,59.88807661207037,
974,4,0.0092051862342193,1,0,Real,ideal,2019_Mar_17_1935,Face-Threshold,3.0.4,59.88807661207037,
975,4,0.00883023071784779,0,0,Real,ideal,2019_Mar_17_1935,Face-Threshold,3.0.4,59.88807661207037,
976,4,0.009464586545568643,1,0,Real,ideal,2019_Mar_17_1935,Face-Threshold,3.0.4,59.88807661207037,
977,4,0.009088697769964196,0,0,Real,ideal,2019_Mar_17_1935,Face-Threshold,3.0.4,59.88807661207037,
978,4,0.009724145319065916,0,0,Real,ideal,2019_Mar_17_1935,Face-Threshold,3.0.4,59.88807661207037,
979,4,0.010442457216489856,1,0,Real,ideal,2019_Mar_17_1935,Face-Threshold,3.0.4,59.88807661207037,
980,4,0.009984005492652395,1,0,Real,ideal,2019_Mar_17_1935,Face-Threshold,3.0.4,59.88807661207037,
981,4,0.00960564207610666,1,0,Real,ideal,2019_Mar_17_1935,Face-Threshold,3.0.4,59.88807661207037,
982,4,0.009230514075584326,0,0,Real,ideal,2019_Mar_17_1935,Face-Threshold,3.0.4,59.88807661207037,
983,4,0.009864405595981215,1,0,Real,ideal,2019_Mar_17_1935,Face-Threshold,3.0.4,59.88807661207037,
984,4,0.009488030140046622,0,0,Real,ideal,2019_Mar_17_1935,Face-Threshold,3.0.4,59.88807661207037,
985,4,0.010150721638655921,1,0,Real,ideal,2019_Mar_17_1935,Face-Threshold,3.0.4,59.88807661207037,
986,4,0.009745728879197668,0,0,Real,ideal,2019_Mar_17_1935,Face-Threshold,3.0.4,59.88807661207037,
987,4,0.010463137975392958,1,0,Real,ideal,2019_Mar_17_1935,Face-Threshold,3.0.4,59.88807661207037,
988,4,0.010004596915506064,1,0,Real,ideal,2019_Mar_17_1935,Face-Threshold,3.0.4,59.88807661207037,
989,4,0.009627955728817514,1,0,Real,ideal,2019_Mar_17_1935,Face-Threshold,3.0.4,59.88807661207037,
990,4,0.009255404096493142,0,0,Real,ideal,2019_Mar_17_1935,Face-Threshold,3.0.4,59.88807661207037,
991,4,0.00988488551437322,0,0,Real,ideal,2019_Mar_17_1935,Face-Threshold,3.0.4,59.88807661207037,
992,4,0.01062703876761903,1,0,Real,ideal,2019_Mar_17_1935,Face-Threshold,3.0.4,59.88807661207037,
993,4,0.010173461212117346,1,0,Real,ideal,2019_Mar_17_1935,Face-Threshold,3.0.4,59.88807661207037,
994,4,0.00976693584245053,1,0,Real,ideal,2019_Mar_17_1935,Face-Threshold,3.0.4,59.88807661207037,
995,4,0.009395043531334413,1,0,Real,ideal,2019_Mar_17_1935,Face-Threshold,3.0.4,59.88807661207037,
996,4,0.009026118558861373,1,0,Real,ideal,2019_Mar_17_1935,Face-Threshold,3.0.4,59.88807661207037,
997,4,0.008659743829282626,1,0,Real,ideal,2019_Mar_17_1935,Face-Threshold,3.0.4,59.88807661207037,
998,4,0.008295507570235908,0,0,Real,ideal,2019_Mar_17_1935,Face-Threshold,3.0.4,59.88807661207037,
999,4,0.008912683541709779,0,0,Real,ideal,2019_Mar_17_1935,Face-Threshold,3.0.4,59.88807661207037,
