.thisTrialN,.stepSize,.intensity,.response,key_resp_2.rt,Face,participant,date,expName,psychopyVersion,frameRate,
0,4,0.5,1,0,Real,ideal,2019_Mar_17_1114,Face-Threshold,3.0.4,59.39875322734113,
1,4,0.4983225699347126,1,0,Real,ideal,2019_Mar_17_1114,Face-Threshold,3.0.4,59.39875322734113,
2,4,0.44550633527271866,1,0,Real,ideal,2019_Mar_17_1114,Face-Threshold,3.0.4,59.39875322734113,
3,4,0.39445686119571033,1,0,Real,ideal,2019_Mar_17_1114,Face-Threshold,3.0.4,59.39875322734113,
4,4,0.34814981683798774,1,0,Real,ideal,2019_Mar_17_1114,Face-Threshold,3.0.4,59.39875322734113,
5,4,0.3060421945095867,1,0,Real,ideal,2019_Mar_17_1114,Face-Threshold,3.0.4,59.39875322734113,
6,4,0.26814921323472907,1,0,Real,ideal,2019_Mar_17_1114,Face-Threshold,3.0.4,59.39875322734113,
7,4,0.2339410768867216,1,0,Real,ideal,2019_Mar_17_1114,Face-Threshold,3.0.4,59.39875322734113,
8,4,0.20260312889986082,1,0,Real,ideal,2019_Mar_17_1114,Face-Threshold,3.0.4,59.39875322734113,
9,4,0.172903911404083,1,0,Real,ideal,2019_Mar_17_1114,Face-Threshold,3.0.4,59.39875322734113,
10,4,0.14452210303640406,1,0,Real,ideal,2019_Mar_17_1114,Face-Threshold,3.0.4,59.39875322734113,
11,4,0.11724014663125376,1,0,Real,ideal,2019_Mar_17_1114,Face-Threshold,3.0.4,59.39875322734113,
12,4,0.09037944510090834,1,0,Real,ideal,2019_Mar_17_1114,Face-Threshold,3.0.4,59.39875322734113,
13,4,0.06467782174383485,1,0,Real,ideal,2019_Mar_17_1114,Face-Threshold,3.0.4,59.39875322734113,
14,4,0.039957066213195114,1,0,Real,ideal,2019_Mar_17_1114,Face-Threshold,3.0.4,59.39875322734113,
15,4,0.0157676385347143,0,0,Real,ideal,2019_Mar_17_1114,Face-Threshold,3.0.4,59.39875322734113,
16,4,0.06028005938201353,1,0,Real,ideal,2019_Mar_17_1114,Face-Threshold,3.0.4,59.39875322734113,
17,4,0.039316340412396344,0,0,Real,ideal,2019_Mar_17_1114,Face-Threshold,3.0.4,59.39875322734113,
18,4,0.07612495354253751,1,0,Real,ideal,2019_Mar_17_1114,Face-Threshold,3.0.4,59.39875322734113,
19,4,0.05661846257049091,1,0,Real,ideal,2019_Mar_17_1114,Face-Threshold,3.0.4,59.39875322734113,
20,4,0.03857690475452363,1,0,Real,ideal,2019_Mar_17_1114,Face-Threshold,3.0.4,59.39875322734113,
21,4,0.022024793022116962,1,0,Real,ideal,2019_Mar_17_1114,Face-Threshold,3.0.4,59.39875322734113,
22,4,0.006862453250310319,1,0,Real,ideal,2019_Mar_17_1114,Face-Threshold,3.0.4,59.39875322734113,
23,4,0,1,0,Real,ideal,2019_Mar_17_1114,Face-Threshold,3.0.4,59.39875322734113,
24,4,0,0,0,Real,ideal,2019_Mar_17_1114,Face-Threshold,3.0.4,59.39875322734113,
25,4,0.005265798995485682,1,0,Real,ideal,2019_Mar_17_1114,Face-Threshold,3.0.4,59.39875322734113,
26,4,0,1,0,Real,ideal,2019_Mar_17_1114,Face-Threshold,3.0.4,59.39875322734113,
27,4,0,1,0,Real,ideal,2019_Mar_17_1114,Face-Threshold,3.0.4,59.39875322734113,
28,4,0,1,0,Real,ideal,2019_Mar_17_1114,Face-Threshold,3.0.4,59.39875322734113,
29,4,0,1,0,Real,ideal,2019_Mar_17_1114,Face-Threshold,3.0.4,59.39875322734113,
30,4,0,0,0,Real,ideal,2019_Mar_17_1114,Face-Threshold,3.0.4,59.39875322734113,
31,4,0,0,0,Real,ideal,2019_Mar_17_1114,Face-Threshold,3.0.4,59.39875322734113,
32,4,0,0,0,Real,ideal,2019_Mar_17_1114,Face-Threshold,3.0.4,59.39875322734113,
33,4,0.010839959219676065,1,0,Real,ideal,2019_Mar_17_1114,Face-Threshold,3.0.4,59.39875322734113,
34,4,5.1523025749899976e-05,0,0,Real,ideal,2019_Mar_17_1114,Face-Threshold,3.0.4,59.39875322734113,
35,4,0.018333079712933187,1,0,Real,ideal,2019_Mar_17_1114,Face-Threshold,3.0.4,59.39875322734113,
36,4,0.007562809547349669,1,0,Real,ideal,2019_Mar_17_1114,Face-Threshold,3.0.4,59.39875322734113,
37,4,0,1,0,Real,ideal,2019_Mar_17_1114,Face-Threshold,3.0.4,59.39875322734113,
38,4,0,0,0,Real,ideal,2019_Mar_17_1114,Face-Threshold,3.0.4,59.39875322734113,
39,4,0.005270642246271939,0,0,Real,ideal,2019_Mar_17_1114,Face-Threshold,3.0.4,59.39875322734113,
40,4,0.02263132036625659,1,0,Real,ideal,2019_Mar_17_1114,Face-Threshold,3.0.4,59.39875322734113,
41,4,0.01279003919150723,1,0,Real,ideal,2019_Mar_17_1114,Face-Threshold,3.0.4,59.39875322734113,
42,4,0.0037065153700562292,1,0,Real,ideal,2019_Mar_17_1114,Face-Threshold,3.0.4,59.39875322734113,
43,4,0,0,0,Real,ideal,2019_Mar_17_1114,Face-Threshold,3.0.4,59.39875322734113,
44,4,0.010138964004001216,1,0,Real,ideal,2019_Mar_17_1114,Face-Threshold,3.0.4,59.39875322734113,
45,4,0.0016135280587687983,0,0,Real,ideal,2019_Mar_17_1114,Face-Threshold,3.0.4,59.39875322734113,
46,4,0.01590019291931949,0,0,Real,ideal,2019_Mar_17_1114,Face-Threshold,3.0.4,59.39875322734113,
47,4,0.032023082255442425,1,0,Real,ideal,2019_Mar_17_1114,Face-Threshold,3.0.4,59.39875322734113,
48,4,0.022767388476252925,1,0,Real,ideal,2019_Mar_17_1114,Face-Threshold,3.0.4,59.39875322734113,
49,4,0.014245371812622365,0,0,Real,ideal,2019_Mar_17_1114,Face-Threshold,3.0.4,59.39875322734113,
50,4,0.02824377597068478,1,0,Real,ideal,2019_Mar_17_1114,Face-Threshold,3.0.4,59.39875322734113,
51,4,0.01949753494039269,0,0,Real,ideal,2019_Mar_17_1114,Face-Threshold,3.0.4,59.39875322734113,
52,4,0.03414342637523665,1,0,Real,ideal,2019_Mar_17_1114,Face-Threshold,3.0.4,59.39875322734113,
53,4,0.02559523641071343,1,0,Real,ideal,2019_Mar_17_1114,Face-Threshold,3.0.4,59.39875322734113,
54,4,0.017394823447148433,1,0,Real,ideal,2019_Mar_17_1114,Face-Threshold,3.0.4,59.39875322734113,
55,4,0.00980115864361114,1,0,Real,ideal,2019_Mar_17_1114,Face-Threshold,3.0.4,59.39875322734113,
56,4,0.0029515229549383903,1,0,Real,ideal,2019_Mar_17_1114,Face-Threshold,3.0.4,59.39875322734113,
57,4,0,0,0,Real,ideal,2019_Mar_17_1114,Face-Threshold,3.0.4,59.39875322734113,
58,4,0.007722621867919055,1,0,Real,ideal,2019_Mar_17_1114,Face-Threshold,3.0.4,59.39875322734113,
59,4,0.0010955940406522924,1,0,Real,ideal,2019_Mar_17_1114,Face-Threshold,3.0.4,59.39875322734113,
60,4,0,0,0,Real,ideal,2019_Mar_17_1114,Face-Threshold,3.0.4,59.39875322734113,
61,4,0.005757794299684593,1,0,Real,ideal,2019_Mar_17_1114,Face-Threshold,3.0.4,59.39875322734113,
62,4,0,0,0,Real,ideal,2019_Mar_17_1114,Face-Threshold,3.0.4,59.39875322734113,
63,4,0.009774170467341803,0,0,Real,ideal,2019_Mar_17_1114,Face-Threshold,3.0.4,59.39875322734113,
64,4,0.020973577289167822,1,0,Real,ideal,2019_Mar_17_1114,Face-Threshold,3.0.4,59.39875322734113,
65,4,0.014364382033403456,1,0,Real,ideal,2019_Mar_17_1114,Face-Threshold,3.0.4,59.39875322734113,
66,4,0.00816168218443386,0,0,Real,ideal,2019_Mar_17_1114,Face-Threshold,3.0.4,59.39875322734113,
67,4,0.01881827876118275,1,0,Real,ideal,2019_Mar_17_1114,Face-Threshold,3.0.4,59.39875322734113,
68,4,0.012496820935746944,0,0,Real,ideal,2019_Mar_17_1114,Face-Threshold,3.0.4,59.39875322734113,
69,4,0.022905185584054744,1,0,Real,ideal,2019_Mar_17_1114,Face-Threshold,3.0.4,59.39875322734113,
70,4,0.016607243860276788,1,0,Real,ideal,2019_Mar_17_1114,Face-Threshold,3.0.4,59.39875322734113,
71,4,0.010477806407063028,1,0,Real,ideal,2019_Mar_17_1114,Face-Threshold,3.0.4,59.39875322734113,
72,4,0.004989666154897987,1,0,Real,ideal,2019_Mar_17_1114,Face-Threshold,3.0.4,59.39875322734113,
73,4,0,0,0,Real,ideal,2019_Mar_17_1114,Face-Threshold,3.0.4,59.39875322734113,
74,4,0.008625989852790117,1,0,Real,ideal,2019_Mar_17_1114,Face-Threshold,3.0.4,59.39875322734113,
75,4,0.0033292209418470664,0,0,Real,ideal,2019_Mar_17_1114,Face-Threshold,3.0.4,59.39875322734113,
76,4,0.011981894600597398,0,0,Real,ideal,2019_Mar_17_1114,Face-Threshold,3.0.4,59.39875322734113,
77,4,0.02136026635940802,1,0,Real,ideal,2019_Mar_17_1114,Face-Threshold,3.0.4,59.39875322734113,
78,4,0.01570326474742023,1,0,Real,ideal,2019_Mar_17_1114,Face-Threshold,3.0.4,59.39875322734113,
79,4,0.010102423081065182,1,0,Real,ideal,2019_Mar_17_1114,Face-Threshold,3.0.4,59.39875322734113,
80,4,0.005145015164168043,1,0,Real,ideal,2019_Mar_17_1114,Face-Threshold,3.0.4,59.39875322734113,
81,4,0.0001411578120212864,1,0,Real,ideal,2019_Mar_17_1114,Face-Threshold,3.0.4,59.39875322734113,
82,4,0,0,0,Real,ideal,2019_Mar_17_1114,Face-Threshold,3.0.4,59.39875322734113,
83,4,0.0035939325936953925,1,0,Real,ideal,2019_Mar_17_1114,Face-Threshold,3.0.4,59.39875322734113,
84,4,0,1,0,Real,ideal,2019_Mar_17_1114,Face-Threshold,3.0.4,59.39875322734113,
85,4,0,0,0,Real,ideal,2019_Mar_17_1114,Face-Threshold,3.0.4,59.39875322734113,
86,4,0.00230168006551823,1,0,Real,ideal,2019_Mar_17_1114,Face-Threshold,3.0.4,59.39875322734113,
87,4,0,0,0,Real,ideal,2019_Mar_17_1114,Face-Threshold,3.0.4,59.39875322734113,
88,4,0.005481082377212676,1,0,Real,ideal,2019_Mar_17_1114,Face-Threshold,3.0.4,59.39875322734113,
89,4,0.0008738107690000052,1,0,Real,ideal,2019_Mar_17_1114,Face-Threshold,3.0.4,59.39875322734113,
90,4,0,0,0,Real,ideal,2019_Mar_17_1114,Face-Threshold,3.0.4,59.39875322734113,
91,4,0.0040153782227449475,0,0,Real,ideal,2019_Mar_17_1114,Face-Threshold,3.0.4,59.39875322734113,
92,4,0.01123220272202008,1,0,Real,ideal,2019_Mar_17_1114,Face-Threshold,3.0.4,59.39875322734113,
93,4,0.006786888618226294,1,0,Real,ideal,2019_Mar_17_1114,Face-Threshold,3.0.4,59.39875322734113,
94,4,0.0024321807694595576,0,0,Real,ideal,2019_Mar_17_1114,Face-Threshold,3.0.4,59.39875322734113,
95,4,0.009403124550885322,1,0,Real,ideal,2019_Mar_17_1114,Face-Threshold,3.0.4,59.39875322734113,
96,4,0.005177610276951017,1,0,Real,ideal,2019_Mar_17_1114,Face-Threshold,3.0.4,59.39875322734113,
97,4,0.000913417422624685,1,0,Real,ideal,2019_Mar_17_1114,Face-Threshold,3.0.4,59.39875322734113,
98,4,0,1,0,Real,ideal,2019_Mar_17_1114,Face-Threshold,3.0.4,59.39875322734113,
99,4,0,1,0,Real,ideal,2019_Mar_17_1114,Face-Threshold,3.0.4,59.39875322734113,
100,4,0,1,0,Real,ideal,2019_Mar_17_1114,Face-Threshold,3.0.4,59.39875322734113,
101,4,0,0,0,Real,ideal,2019_Mar_17_1114,Face-Threshold,3.0.4,59.39875322734113,
102,4,0,0,0,Real,ideal,2019_Mar_17_1114,Face-Threshold,3.0.4,59.39875322734113,
103,4,0,1,0,Real,ideal,2019_Mar_17_1114,Face-Threshold,3.0.4,59.39875322734113,
104,4,0,1,0,Real,ideal,2019_Mar_17_1114,Face-Threshold,3.0.4,59.39875322734113,
105,4,0,0,0,Real,ideal,2019_Mar_17_1114,Face-Threshold,3.0.4,59.39875322734113,
106,4,0,0,0,Real,ideal,2019_Mar_17_1114,Face-Threshold,3.0.4,59.39875322734113,
107,4,0.004213596041512779,0,0,Real,ideal,2019_Mar_17_1114,Face-Threshold,3.0.4,59.39875322734113,
108,4,0.010394342523471323,1,0,Real,ideal,2019_Mar_17_1114,Face-Threshold,3.0.4,59.39875322734113,
109,4,0.00658783555521808,0,0,Real,ideal,2019_Mar_17_1114,Face-Threshold,3.0.4,59.39875322734113,
110,4,0.013327131955556348,1,0,Real,ideal,2019_Mar_17_1114,Face-Threshold,3.0.4,59.39875322734113,
111,4,0.00933985587667363,1,0,Real,ideal,2019_Mar_17_1114,Face-Threshold,3.0.4,59.39875322734113,
112,4,0.005662063036319609,0,0,Real,ideal,2019_Mar_17_1114,Face-Threshold,3.0.4,59.39875322734113,
113,4,0.012167426706355067,1,0,Real,ideal,2019_Mar_17_1114,Face-Threshold,3.0.4,59.39875322734113,
114,4,0.008367788117703945,1,0,Real,ideal,2019_Mar_17_1114,Face-Threshold,3.0.4,59.39875322734113,
115,4,0.004774002309189063,1,0,Real,ideal,2019_Mar_17_1114,Face-Threshold,3.0.4,59.39875322734113,
116,4,0.0012962699624169405,0,0,Real,ideal,2019_Mar_17_1114,Face-Threshold,3.0.4,59.39875322734113,
117,4,0.007110104293771846,1,0,Real,ideal,2019_Mar_17_1114,Face-Threshold,3.0.4,59.39875322734113,
118,4,0.0035832582544911284,1,0,Real,ideal,2019_Mar_17_1114,Face-Threshold,3.0.4,59.39875322734113,
119,4,0.00015912592664046876,0,0,Real,ideal,2019_Mar_17_1114,Face-Threshold,3.0.4,59.39875322734113,
120,4,0.0058987978411839115,0,0,Real,ideal,2019_Mar_17_1114,Face-Threshold,3.0.4,59.39875322734113,
121,4,0.011989722679573378,0,0,Real,ideal,2019_Mar_17_1114,Face-Threshold,3.0.4,59.39875322734113,
122,4,0.018154121317474292,1,0,Real,ideal,2019_Mar_17_1114,Face-Threshold,3.0.4,59.39875322734113,
123,4,0.014404754971182543,1,0,Real,ideal,2019_Mar_17_1114,Face-Threshold,3.0.4,59.39875322734113,
124,4,0.010774085617398288,1,0,Real,ideal,2019_Mar_17_1114,Face-Threshold,3.0.4,59.39875322734113,
125,4,0.007400002336707678,0,0,Real,ideal,2019_Mar_17_1114,Face-Threshold,3.0.4,59.39875322734113,
126,4,0.013323441661628355,1,0,Real,ideal,2019_Mar_17_1114,Face-Threshold,3.0.4,59.39875322734113,
127,4,0.009776274277348895,0,0,Real,ideal,2019_Mar_17_1114,Face-Threshold,3.0.4,59.39875322734113,
128,4,0.015743492408190674,0,0,Real,ideal,2019_Mar_17_1114,Face-Threshold,3.0.4,59.39875322734113,
129,4,0.022094121357667473,1,0,Real,ideal,2019_Mar_17_1114,Face-Threshold,3.0.4,59.39875322734113,
130,4,0.018376453740858778,1,0,Real,ideal,2019_Mar_17_1114,Face-Threshold,3.0.4,59.39875322734113,
131,4,0.01486408499254549,1,0,Real,ideal,2019_Mar_17_1114,Face-Threshold,3.0.4,59.39875322734113,
132,4,0.011468941367688501,1,0,Real,ideal,2019_Mar_17_1114,Face-Threshold,3.0.4,59.39875322734113,
133,4,0.008234748532323255,0,0,Real,ideal,2019_Mar_17_1114,Face-Threshold,3.0.4,59.39875322734113,
134,4,0.013832821443183041,0,0,Real,ideal,2019_Mar_17_1114,Face-Threshold,3.0.4,59.39875322734113,
135,4,0.019317642728531814,1,0,Real,ideal,2019_Mar_17_1114,Face-Threshold,3.0.4,59.39875322734113,
136,4,0.015944626657218075,1,0,Real,ideal,2019_Mar_17_1114,Face-Threshold,3.0.4,59.39875322734113,
137,4,0.012555817033048922,0,0,Real,ideal,2019_Mar_17_1114,Face-Threshold,3.0.4,59.39875322734113,
138,4,0.017963404836182584,1,0,Real,ideal,2019_Mar_17_1114,Face-Threshold,3.0.4,59.39875322734113,
139,4,0.014655608351267946,1,0,Real,ideal,2019_Mar_17_1114,Face-Threshold,3.0.4,59.39875322734113,
140,4,0.01145737470433894,1,0,Real,ideal,2019_Mar_17_1114,Face-Threshold,3.0.4,59.39875322734113,
141,4,0.008405878296628866,0,0,Real,ideal,2019_Mar_17_1114,Face-Threshold,3.0.4,59.39875322734113,
142,4,0.013679604094601727,1,0,Real,ideal,2019_Mar_17_1114,Face-Threshold,3.0.4,59.39875322734113,
143,4,0.01052622300115258,1,0,Real,ideal,2019_Mar_17_1114,Face-Threshold,3.0.4,59.39875322734113,
144,4,0.007625038920916483,0,0,Real,ideal,2019_Mar_17_1114,Face-Threshold,3.0.4,59.39875322734113,
145,4,0.012733337517570664,1,0,Real,ideal,2019_Mar_17_1114,Face-Threshold,3.0.4,59.39875322734113,
146,4,0.009662331798873325,0,0,Real,ideal,2019_Mar_17_1114,Face-Threshold,3.0.4,59.39875322734113,
147,4,0.01483935547733356,1,0,Real,ideal,2019_Mar_17_1114,Face-Threshold,3.0.4,59.39875322734113,
148,4,0.011814704310737056,1,0,Real,ideal,2019_Mar_17_1114,Face-Threshold,3.0.4,59.39875322734113,
149,4,0.008882400527767065,1,0,Real,ideal,2019_Mar_17_1114,Face-Threshold,3.0.4,59.39875322734113,
150,4,0.006142874272605958,0,0,Real,ideal,2019_Mar_17_1114,Face-Threshold,3.0.4,59.39875322734113,
151,4,0.010921760270508452,1,0,Real,ideal,2019_Mar_17_1114,Face-Threshold,3.0.4,59.39875322734113,
152,4,0.00812943929791865,1,0,Real,ideal,2019_Mar_17_1114,Face-Threshold,3.0.4,59.39875322734113,
153,4,0.0054381974501632735,0,0,Real,ideal,2019_Mar_17_1114,Face-Threshold,3.0.4,59.39875322734113,
154,4,0.010052707035199171,1,0,Real,ideal,2019_Mar_17_1114,Face-Threshold,3.0.4,59.39875322734113,
155,4,0.007401735275287646,0,0,Real,ideal,2019_Mar_17_1114,Face-Threshold,3.0.4,59.39875322734113,
156,4,0.01211919315096166,1,0,Real,ideal,2019_Mar_17_1114,Face-Threshold,3.0.4,59.39875322734113,
157,4,0.009295447818930436,1,0,Real,ideal,2019_Mar_17_1114,Face-Threshold,3.0.4,59.39875322734113,
158,4,0.006697704273276095,0,0,Real,ideal,2019_Mar_17_1114,Face-Threshold,3.0.4,59.39875322734113,
159,4,0.011262070285774084,1,0,Real,ideal,2019_Mar_17_1114,Face-Threshold,3.0.4,59.39875322734113,
160,4,0.008569062243088732,1,0,Real,ideal,2019_Mar_17_1114,Face-Threshold,3.0.4,59.39875322734113,
161,4,0.006015879508323718,0,0,Real,ideal,2019_Mar_17_1114,Face-Threshold,3.0.4,59.39875322734113,
162,4,0.010426933189031595,1,0,Real,ideal,2019_Mar_17_1114,Face-Threshold,3.0.4,59.39875322734113,
163,4,0.007866262562696957,0,0,Real,ideal,2019_Mar_17_1114,Face-Threshold,3.0.4,59.39875322734113,
164,4,0.012380349936243817,1,0,Real,ideal,2019_Mar_17_1114,Face-Threshold,3.0.4,59.39875322734113,
165,4,0.00965594405956105,1,0,Real,ideal,2019_Mar_17_1114,Face-Threshold,3.0.4,59.39875322734113,
166,4,0.00718560514847677,0,0,Real,ideal,2019_Mar_17_1114,Face-Threshold,3.0.4,59.39875322734113,
167,4,0.011556764097643724,1,0,Real,ideal,2019_Mar_17_1114,Face-Threshold,3.0.4,59.39875322734113,
168,4,0.008954777845338657,0,0,Real,ideal,2019_Mar_17_1114,Face-Threshold,3.0.4,59.39875322734113,
169,4,0.013417897007181212,1,0,Real,ideal,2019_Mar_17_1114,Face-Threshold,3.0.4,59.39875322734113,
170,4,0.010753448323098325,1,0,Real,ideal,2019_Mar_17_1114,Face-Threshold,3.0.4,59.39875322734113,
171,4,0.008275672726896777,0,0,Real,ideal,2019_Mar_17_1114,Face-Threshold,3.0.4,59.39875322734113,
172,4,0.012605639314016204,1,0,Real,ideal,2019_Mar_17_1114,Face-Threshold,3.0.4,59.39875322734113,
173,4,0.009972520359091075,1,0,Real,ideal,2019_Mar_17_1114,Face-Threshold,3.0.4,59.39875322734113,
174,4,0.007617310262896637,1,0,Real,ideal,2019_Mar_17_1114,Face-Threshold,3.0.4,59.39875322734113,
175,4,0.00526356587698823,0,0,Real,ideal,2019_Mar_17_1114,Face-Threshold,3.0.4,59.39875322734113,
176,4,0.009295220204898147,1,0,Real,ideal,2019_Mar_17_1114,Face-Threshold,3.0.4,59.39875322734113,
177,4,0.006978465310564896,1,0,Real,ideal,2019_Mar_17_1114,Face-Threshold,3.0.4,59.39875322734113,
178,4,0.004659003868843159,1,0,Real,ideal,2019_Mar_17_1114,Face-Threshold,3.0.4,59.39875322734113,
179,4,0.002417934373771413,1,0,Real,ideal,2019_Mar_17_1114,Face-Threshold,3.0.4,59.39875322734113,
180,4,0.00014428365588703418,0,0,Real,ideal,2019_Mar_17_1114,Face-Threshold,3.0.4,59.39875322734113,
181,4,0.003949942613014845,0,0,Real,ideal,2019_Mar_17_1114,Face-Threshold,3.0.4,59.39875322734113,
182,4,0.007591772107262806,1,0,Real,ideal,2019_Mar_17_1114,Face-Threshold,3.0.4,59.39875322734113,
183,4,0.005336687902333881,1,0,Real,ideal,2019_Mar_17_1114,Face-Threshold,3.0.4,59.39875322734113,
184,4,0.003068543707571869,1,0,Real,ideal,2019_Mar_17_1114,Face-Threshold,3.0.4,59.39875322734113,
185,4,0.0008668416736870577,0,0,Real,ideal,2019_Mar_17_1114,Face-Threshold,3.0.4,59.39875322734113,
186,4,0.004545142929599066,1,0,Real,ideal,2019_Mar_17_1114,Face-Threshold,3.0.4,59.39875322734113,
187,4,0.00239170103321773,1,0,Real,ideal,2019_Mar_17_1114,Face-Threshold,3.0.4,59.39875322734113,
188,4,0.00020701007365031554,1,0,Real,ideal,2019_Mar_17_1114,Face-Threshold,3.0.4,59.39875322734113,
189,4,0,1,0,Real,ideal,2019_Mar_17_1114,Face-Threshold,3.0.4,59.39875322734113,
190,4,0,1,0,Real,ideal,2019_Mar_17_1114,Face-Threshold,3.0.4,59.39875322734113,
191,4,0,0,0,Real,ideal,2019_Mar_17_1114,Face-Threshold,3.0.4,59.39875322734113,
192,4,0,1,0,Real,ideal,2019_Mar_17_1114,Face-Threshold,3.0.4,59.39875322734113,
193,4,0,1,0,Real,ideal,2019_Mar_17_1114,Face-Threshold,3.0.4,59.39875322734113,
194,4,0,0,0,Real,ideal,2019_Mar_17_1114,Face-Threshold,3.0.4,59.39875322734113,
195,4,0,0,0,Real,ideal,2019_Mar_17_1114,Face-Threshold,3.0.4,59.39875322734113,
196,4,0.00043825406896946806,1,0,Real,ideal,2019_Mar_17_1114,Face-Threshold,3.0.4,59.39875322734113,
197,4,0,1,0,Real,ideal,2019_Mar_17_1114,Face-Threshold,3.0.4,59.39875322734113,
198,4,0,0,0,Real,ideal,2019_Mar_17_1114,Face-Threshold,3.0.4,59.39875322734113,
199,4,0,0,0,Real,ideal,2019_Mar_17_1114,Face-Threshold,3.0.4,59.39875322734113,
200,4,0.003306436855706696,0,0,Real,ideal,2019_Mar_17_1114,Face-Threshold,3.0.4,59.39875322734113,
201,4,0.006651442137132424,0,0,Real,ideal,2019_Mar_17_1114,Face-Threshold,3.0.4,59.39875322734113,
202,4,0.010193925471560505,1,0,Real,ideal,2019_Mar_17_1114,Face-Threshold,3.0.4,59.39875322734113,
203,4,0.008131378745812046,0,0,Real,ideal,2019_Mar_17_1114,Face-Threshold,3.0.4,59.39875322734113,
204,4,0.011788470885332969,1,0,Real,ideal,2019_Mar_17_1114,Face-Threshold,3.0.4,59.39875322734113,
205,4,0.009573210324432868,0,0,Real,ideal,2019_Mar_17_1114,Face-Threshold,3.0.4,59.39875322734113,
206,4,0.013324346965145284,1,0,Real,ideal,2019_Mar_17_1114,Face-Threshold,3.0.4,59.39875322734113,
207,4,0.01110595353811128,1,0,Real,ideal,2019_Mar_17_1114,Face-Threshold,3.0.4,59.39875322734113,
208,4,0.008991295259147325,1,0,Real,ideal,2019_Mar_17_1114,Face-Threshold,3.0.4,59.39875322734113,
209,4,0.0070096178289686395,0,0,Real,ideal,2019_Mar_17_1114,Face-Threshold,3.0.4,59.39875322734113,
210,4,0.010436651371216854,1,0,Real,ideal,2019_Mar_17_1114,Face-Threshold,3.0.4,59.39875322734113,
211,4,0.008424862052647752,1,0,Real,ideal,2019_Mar_17_1114,Face-Threshold,3.0.4,59.39875322734113,
212,4,0.006469940784424311,1,0,Real,ideal,2019_Mar_17_1114,Face-Threshold,3.0.4,59.39875322734113,
213,4,0.004510432784842644,1,0,Real,ideal,2019_Mar_17_1114,Face-Threshold,3.0.4,59.39875322734113,
214,4,0.002616966079596439,1,0,Real,ideal,2019_Mar_17_1114,Face-Threshold,3.0.4,59.39875322734113,
215,4,0.0006976397682419977,1,0,Real,ideal,2019_Mar_17_1114,Face-Threshold,3.0.4,59.39875322734113,
216,4,0,1,0,Real,ideal,2019_Mar_17_1114,Face-Threshold,3.0.4,59.39875322734113,
217,4,0,1,0,Real,ideal,2019_Mar_17_1114,Face-Threshold,3.0.4,59.39875322734113,
218,4,0,0,0,Real,ideal,2019_Mar_17_1114,Face-Threshold,3.0.4,59.39875322734113,
219,4,0,1,0,Real,ideal,2019_Mar_17_1114,Face-Threshold,3.0.4,59.39875322734113,
220,4,0,1,0,Real,ideal,2019_Mar_17_1114,Face-Threshold,3.0.4,59.39875322734113,
221,4,0,1,0,Real,ideal,2019_Mar_17_1114,Face-Threshold,3.0.4,59.39875322734113,
222,4,0,0,0,Real,ideal,2019_Mar_17_1114,Face-Threshold,3.0.4,59.39875322734113,
223,4,0,0,0,Real,ideal,2019_Mar_17_1114,Face-Threshold,3.0.4,59.39875322734113,
224,4,0,0,0,Real,ideal,2019_Mar_17_1114,Face-Threshold,3.0.4,59.39875322734113,
225,4,0.0021509401022626884,0,0,Real,ideal,2019_Mar_17_1114,Face-Threshold,3.0.4,59.39875322734113,
226,4,0.005176490012760937,1,0,Real,ideal,2019_Mar_17_1114,Face-Threshold,3.0.4,59.39875322734113,
227,4,0.0033139978557693017,0,0,Real,ideal,2019_Mar_17_1114,Face-Threshold,3.0.4,59.39875322734113,
228,4,0.006276299460106161,0,0,Real,ideal,2019_Mar_17_1114,Face-Threshold,3.0.4,59.39875322734113,
229,4,0.009398063984434102,1,0,Real,ideal,2019_Mar_17_1114,Face-Threshold,3.0.4,59.39875322734113,
230,4,0.0075896640068525145,1,0,Real,ideal,2019_Mar_17_1114,Face-Threshold,3.0.4,59.39875322734113,
231,4,0.005783043342217409,1,0,Real,ideal,2019_Mar_17_1114,Face-Threshold,3.0.4,59.39875322734113,
232,4,0.003968784349893062,1,0,Real,ideal,2019_Mar_17_1114,Face-Threshold,3.0.4,59.39875322734113,
233,4,0.002213042160600698,0,0,Real,ideal,2019_Mar_17_1114,Face-Threshold,3.0.4,59.39875322734113,
234,4,0.0051349538268448125,0,0,Real,ideal,2019_Mar_17_1114,Face-Threshold,3.0.4,59.39875322734113,
235,4,0.008199259916684576,1,0,Real,ideal,2019_Mar_17_1114,Face-Threshold,3.0.4,59.39875322734113,
236,4,0.006433697389551463,1,0,Real,ideal,2019_Mar_17_1114,Face-Threshold,3.0.4,59.39875322734113,
237,4,0.0046640177330558585,0,0,Real,ideal,2019_Mar_17_1114,Face-Threshold,3.0.4,59.39875322734113,
238,4,0.007467183592641424,1,0,Real,ideal,2019_Mar_17_1114,Face-Threshold,3.0.4,59.39875322734113,
239,4,0.00572023846806885,0,0,Real,ideal,2019_Mar_17_1114,Face-Threshold,3.0.4,59.39875322734113,
240,4,0.008707492613293955,1,0,Real,ideal,2019_Mar_17_1114,Face-Threshold,3.0.4,59.39875322734113,
241,4,0.00698096616505095,0,0,Real,ideal,2019_Mar_17_1114,Face-Threshold,3.0.4,59.39875322734113,
242,4,0.009922576831767449,1,0,Real,ideal,2019_Mar_17_1114,Face-Threshold,3.0.4,59.39875322734113,
243,4,0.008211598192583103,0,0,Real,ideal,2019_Mar_17_1114,Face-Threshold,3.0.4,59.39875322734113,
244,4,0.011260669209414764,1,0,Real,ideal,2019_Mar_17_1114,Face-Threshold,3.0.4,59.39875322734113,
245,4,0.009416283854241259,0,0,Real,ideal,2019_Mar_17_1114,Face-Threshold,3.0.4,59.39875322734113,
246,4,0.012564622902478007,0,0,Real,ideal,2019_Mar_17_1114,Face-Threshold,3.0.4,59.39875322734113,
247,4,0.015656846630648924,0,0,Real,ideal,2019_Mar_17_1114,Face-Threshold,3.0.4,59.39875322734113,
248,4,0.01890513443051972,1,0,Real,ideal,2019_Mar_17_1114,Face-Threshold,3.0.4,59.39875322734113,
249,4,0.017028636804934494,1,0,Real,ideal,2019_Mar_17_1114,Face-Threshold,3.0.4,59.39875322734113,
250,4,0.015151603752515286,1,0,Real,ideal,2019_Mar_17_1114,Face-Threshold,3.0.4,59.39875322734113,
251,4,0.013263902519704773,0,0,Real,ideal,2019_Mar_17_1114,Face-Threshold,3.0.4,59.39875322734113,
252,4,0.016265580420374237,1,0,Real,ideal,2019_Mar_17_1114,Face-Threshold,3.0.4,59.39875322734113,
253,4,0.014407100067558798,1,0,Real,ideal,2019_Mar_17_1114,Face-Threshold,3.0.4,59.39875322734113,
254,4,0.01261158462757661,1,0,Real,ideal,2019_Mar_17_1114,Face-Threshold,3.0.4,59.39875322734113,
255,4,0.010792344206596194,1,0,Real,ideal,2019_Mar_17_1114,Face-Threshold,3.0.4,59.39875322734113,
256,4,0.00907918716258549,1,0,Real,ideal,2019_Mar_17_1114,Face-Threshold,3.0.4,59.39875322734113,
257,4,0.0074688942431606065,0,0,Real,ideal,2019_Mar_17_1114,Face-Threshold,3.0.4,59.39875322734113,
258,4,0.010237634264384454,0,0,Real,ideal,2019_Mar_17_1114,Face-Threshold,3.0.4,59.39875322734113,
259,4,0.013262945648875202,0,0,Real,ideal,2019_Mar_17_1114,Face-Threshold,3.0.4,59.39875322734113,
260,4,0.016169172491019068,1,0,Real,ideal,2019_Mar_17_1114,Face-Threshold,3.0.4,59.39875322734113,
261,4,0.014369236253208018,0,0,Real,ideal,2019_Mar_17_1114,Face-Threshold,3.0.4,59.39875322734113,
262,4,0.017221831101244367,0,0,Real,ideal,2019_Mar_17_1114,Face-Threshold,3.0.4,59.39875322734113,
263,4,0.020279277130344997,1,0,Real,ideal,2019_Mar_17_1114,Face-Threshold,3.0.4,59.39875322734113,
264,4,0.018484165187937607,0,0,Real,ideal,2019_Mar_17_1114,Face-Threshold,3.0.4,59.39875322734113,
265,4,0.021657183485603082,1,0,Real,ideal,2019_Mar_17_1114,Face-Threshold,3.0.4,59.39875322734113,
266,4,0.01972011359321657,1,0,Real,ideal,2019_Mar_17_1114,Face-Threshold,3.0.4,59.39875322734113,
267,4,0.01798212176503916,0,0,Real,ideal,2019_Mar_17_1114,Face-Threshold,3.0.4,59.39875322734113,
268,4,0.021056511996201677,1,0,Real,ideal,2019_Mar_17_1114,Face-Threshold,3.0.4,59.39875322734113,
269,4,0.019207464980720124,1,0,Real,ideal,2019_Mar_17_1114,Face-Threshold,3.0.4,59.39875322734113,
270,4,0.017491680808137067,1,0,Real,ideal,2019_Mar_17_1114,Face-Threshold,3.0.4,59.39875322734113,
271,4,0.015777765873875083,0,0,Real,ideal,2019_Mar_17_1114,Face-Threshold,3.0.4,59.39875322734113,
272,4,0.01870704285245922,1,0,Real,ideal,2019_Mar_17_1114,Face-Threshold,3.0.4,59.39875322734113,
273,4,0.01701226387287208,1,0,Real,ideal,2019_Mar_17_1114,Face-Threshold,3.0.4,59.39875322734113,
274,4,0.015316983176508814,0,0,Real,ideal,2019_Mar_17_1114,Face-Threshold,3.0.4,59.39875322734113,
275,4,0.018218238216673566,1,0,Real,ideal,2019_Mar_17_1114,Face-Threshold,3.0.4,59.39875322734113,
276,4,0.016543326044059947,1,0,Real,ideal,2019_Mar_17_1114,Face-Threshold,3.0.4,59.39875322734113,
277,4,0.0148656478373409,0,0,Real,ideal,2019_Mar_17_1114,Face-Threshold,3.0.4,59.39875322734113,
278,4,0.01752039767884178,1,0,Real,ideal,2019_Mar_17_1114,Face-Threshold,3.0.4,59.39875322734113,
279,4,0.015862638375506444,1,0,Real,ideal,2019_Mar_17_1114,Face-Threshold,3.0.4,59.39875322734113,
280,4,0.01419888129014707,1,0,Real,ideal,2019_Mar_17_1114,Face-Threshold,3.0.4,59.39875322734113,
281,4,0.012590591547497532,0,0,Real,ideal,2019_Mar_17_1114,Face-Threshold,3.0.4,59.39875322734113,
282,4,0.015263381127507358,0,0,Real,ideal,2019_Mar_17_1114,Face-Threshold,3.0.4,59.39875322734113,
283,4,0.018075109780802123,1,0,Real,ideal,2019_Mar_17_1114,Face-Threshold,3.0.4,59.39875322734113,
284,4,0.016451887733550163,0,0,Real,ideal,2019_Mar_17_1114,Face-Threshold,3.0.4,59.39875322734113,
285,4,0.019220744455454908,1,0,Real,ideal,2019_Mar_17_1114,Face-Threshold,3.0.4,59.39875322734113,
286,4,0.017612698545629024,0,0,Real,ideal,2019_Mar_17_1114,Face-Threshold,3.0.4,59.39875322734113,
287,4,0.020394850816015997,1,0,Real,ideal,2019_Mar_17_1114,Face-Threshold,3.0.4,59.39875322734113,
288,4,0.01874947703428831,1,0,Real,ideal,2019_Mar_17_1114,Face-Threshold,3.0.4,59.39875322734113,
289,4,0.017160123760274593,0,0,Real,ideal,2019_Mar_17_1114,Face-Threshold,3.0.4,59.39875322734113,
290,4,0.01986563261450336,1,0,Real,ideal,2019_Mar_17_1114,Face-Threshold,3.0.4,59.39875322734113,
291,4,0.018288567228960884,1,0,Real,ideal,2019_Mar_17_1114,Face-Threshold,3.0.4,59.39875322734113,
292,4,0.01671691643094364,0,0,Real,ideal,2019_Mar_17_1114,Face-Threshold,3.0.4,59.39875322734113,
293,4,0.019395726609535813,1,0,Real,ideal,2019_Mar_17_1114,Face-Threshold,3.0.4,59.39875322734113,
294,4,0.01783752203120198,1,0,Real,ideal,2019_Mar_17_1114,Face-Threshold,3.0.4,59.39875322734113,
295,4,0.016282633265123747,1,0,Real,ideal,2019_Mar_17_1114,Face-Threshold,3.0.4,59.39875322734113,
296,4,0.01472403000688477,0,0,Real,ideal,2019_Mar_17_1114,Face-Threshold,3.0.4,59.39875322734113,
297,4,0.017191310801543014,0,0,Real,ideal,2019_Mar_17_1114,Face-Threshold,3.0.4,59.39875322734113,
298,4,0.019814244436183293,1,0,Real,ideal,2019_Mar_17_1114,Face-Threshold,3.0.4,59.39875322734113,
299,4,0.01828469634042834,0,0,Real,ideal,2019_Mar_17_1114,Face-Threshold,3.0.4,59.39875322734113,
300,4,0.020999648440005625,0,0,Real,ideal,2019_Mar_17_1114,Face-Threshold,3.0.4,59.39875322734113,
301,4,0.02385229489299945,1,0,Real,ideal,2019_Mar_17_1114,Face-Threshold,3.0.4,59.39875322734113,
302,4,0.022174520547977916,0,0,Real,ideal,2019_Mar_17_1114,Face-Threshold,3.0.4,59.39875322734113,
303,4,0.024965082599156363,1,0,Real,ideal,2019_Mar_17_1114,Face-Threshold,3.0.4,59.39875322734113,
304,4,0.0233152663229671,1,0,Real,ideal,2019_Mar_17_1114,Face-Threshold,3.0.4,59.39875322734113,
305,4,0.021647363985024315,1,0,Real,ideal,2019_Mar_17_1114,Face-Threshold,3.0.4,59.39875322734113,
306,4,0.01995968971320855,1,0,Real,ideal,2019_Mar_17_1114,Face-Threshold,3.0.4,59.39875322734113,
307,4,0.018474911187181253,1,0,Real,ideal,2019_Mar_17_1114,Face-Threshold,3.0.4,59.39875322734113,
308,4,0.016996073790277344,1,0,Real,ideal,2019_Mar_17_1114,Face-Threshold,3.0.4,59.39875322734113,
309,4,0.01551679051257332,1,0,Real,ideal,2019_Mar_17_1114,Face-Threshold,3.0.4,59.39875322734113,
310,4,0.014030707438099643,1,0,Real,ideal,2019_Mar_17_1114,Face-Threshold,3.0.4,59.39875322734113,
311,4,0.012593528552523492,1,0,Real,ideal,2019_Mar_17_1114,Face-Threshold,3.0.4,59.39875322734113,
312,4,0.011137541923767313,1,0,Real,ideal,2019_Mar_17_1114,Face-Threshold,3.0.4,59.39875322734113,
313,4,0.009703016095736927,0,0,Real,ideal,2019_Mar_17_1114,Face-Threshold,3.0.4,59.39875322734113,
314,4,0.012135718379224891,1,0,Real,ideal,2019_Mar_17_1114,Face-Threshold,3.0.4,59.39875322734113,
315,4,0.010684861223257514,1,0,Real,ideal,2019_Mar_17_1114,Face-Threshold,3.0.4,59.39875322734113,
316,4,0.009317346676843363,1,0,Real,ideal,2019_Mar_17_1114,Face-Threshold,3.0.4,59.39875322734113,
317,4,0.00804430393633132,0,0,Real,ideal,2019_Mar_17_1114,Face-Threshold,3.0.4,59.39875322734113,
318,4,0.01023694719372531,1,0,Real,ideal,2019_Mar_17_1114,Face-Threshold,3.0.4,59.39875322734113,
319,4,0.008938786627310125,1,0,Real,ideal,2019_Mar_17_1114,Face-Threshold,3.0.4,59.39875322734113,
320,4,0.0076780602982285395,1,0,Real,ideal,2019_Mar_17_1114,Face-Threshold,3.0.4,59.39875322734113,
321,4,0.006419251845699192,1,0,Real,ideal,2019_Mar_17_1114,Face-Threshold,3.0.4,59.39875322734113,
322,4,0.0051577253465883155,1,0,Real,ideal,2019_Mar_17_1114,Face-Threshold,3.0.4,59.39875322734113,
323,4,0.003888844942041947,0,0,Real,ideal,2019_Mar_17_1114,Face-Threshold,3.0.4,59.39875322734113,
324,4,0.005902818656377484,0,0,Real,ideal,2019_Mar_17_1114,Face-Threshold,3.0.4,59.39875322734113,
325,4,0.008037907695754964,0,0,Real,ideal,2019_Mar_17_1114,Face-Threshold,3.0.4,59.39875322734113,
326,4,0.010168684702863362,1,0,Real,ideal,2019_Mar_17_1114,Face-Threshold,3.0.4,59.39875322734113,
327,4,0.008910167388171408,1,0,Real,ideal,2019_Mar_17_1114,Face-Threshold,3.0.4,59.39875322734113,
328,4,0.007680205658305406,0,0,Real,ideal,2019_Mar_17_1114,Face-Threshold,3.0.4,59.39875322734113,
329,4,0.009771000323434031,0,0,Real,ideal,2019_Mar_17_1114,Face-Threshold,3.0.4,59.39875322734113,
330,4,0.012095944117160584,1,0,Real,ideal,2019_Mar_17_1114,Face-Threshold,3.0.4,59.39875322734113,
331,4,0.01071308767854856,1,0,Real,ideal,2019_Mar_17_1114,Face-Threshold,3.0.4,59.39875322734113,
332,4,0.009402336105319542,0,0,Real,ideal,2019_Mar_17_1114,Face-Threshold,3.0.4,59.39875322734113,
333,4,0.011663918981112686,1,0,Real,ideal,2019_Mar_17_1114,Face-Threshold,3.0.4,59.39875322734113,
334,4,0.01028480180309177,0,0,Real,ideal,2019_Mar_17_1114,Face-Threshold,3.0.4,59.39875322734113,
335,4,0.012589932863150799,1,0,Real,ideal,2019_Mar_17_1114,Face-Threshold,3.0.4,59.39875322734113,
336,4,0.011236433734664875,1,0,Real,ideal,2019_Mar_17_1114,Face-Threshold,3.0.4,59.39875322734113,
337,4,0.009879390389672338,1,0,Real,ideal,2019_Mar_17_1114,Face-Threshold,3.0.4,59.39875322734113,
338,4,0.008684373330594408,1,0,Real,ideal,2019_Mar_17_1114,Face-Threshold,3.0.4,59.39875322734113,
339,4,0.007494760866050165,1,0,Real,ideal,2019_Mar_17_1114,Face-Threshold,3.0.4,59.39875322734113,
340,4,0.006306390888405622,1,0,Real,ideal,2019_Mar_17_1114,Face-Threshold,3.0.4,59.39875322734113,
341,4,0.005115126322017494,0,0,Real,ideal,2019_Mar_17_1114,Face-Threshold,3.0.4,59.39875322734113,
342,4,0.0071552678187900565,0,0,Real,ideal,2019_Mar_17_1114,Face-Threshold,3.0.4,59.39875322734113,
343,4,0.009162923546332968,0,0,Real,ideal,2019_Mar_17_1114,Face-Threshold,3.0.4,59.39875322734113,
344,4,0.011321678339913765,1,0,Real,ideal,2019_Mar_17_1114,Face-Threshold,3.0.4,59.39875322734113,
345,4,0.009981557048275358,1,0,Real,ideal,2019_Mar_17_1114,Face-Threshold,3.0.4,59.39875322734113,
346,4,0.008813917304508756,1,0,Real,ideal,2019_Mar_17_1114,Face-Threshold,3.0.4,59.39875322734113,
347,4,0.007652030901679596,1,0,Real,ideal,2019_Mar_17_1114,Face-Threshold,3.0.4,59.39875322734113,
348,4,0.00649192275520738,1,0,Real,ideal,2019_Mar_17_1114,Face-Threshold,3.0.4,59.39875322734113,
349,4,0.005329644991102722,1,0,Real,ideal,2019_Mar_17_1114,Face-Threshold,3.0.4,59.39875322734113,
350,4,0.004161250343626466,0,0,Real,ideal,2019_Mar_17_1114,Face-Threshold,3.0.4,59.39875322734113,
351,4,0.0060140315754736995,1,0,Real,ideal,2019_Mar_17_1114,Face-Threshold,3.0.4,59.39875322734113,
352,4,0.00485815074668744,0,0,Real,ideal,2019_Mar_17_1114,Face-Threshold,3.0.4,59.39875322734113,
353,4,0.006687184774010924,0,0,Real,ideal,2019_Mar_17_1114,Face-Threshold,3.0.4,59.39875322734113,
354,4,0.008636429482960617,0,0,Real,ideal,2019_Mar_17_1114,Face-Threshold,3.0.4,59.39875322734113,
355,4,0.010655595357704772,0,0,Real,ideal,2019_Mar_17_1114,Face-Threshold,3.0.4,59.39875322734113,
356,4,0.012816470540337466,1,0,Real,ideal,2019_Mar_17_1114,Face-Threshold,3.0.4,59.39875322734113,
357,4,0.011545079949215331,1,0,Real,ideal,2019_Mar_17_1114,Face-Threshold,3.0.4,59.39875322734113,
358,4,0.01025371803984998,0,0,Real,ideal,2019_Mar_17_1114,Face-Threshold,3.0.4,59.39875322734113,
359,4,0.012412162165641283,1,0,Real,ideal,2019_Mar_17_1114,Face-Threshold,3.0.4,59.39875322734113,
360,4,0.011144276725965518,1,0,Real,ideal,2019_Mar_17_1114,Face-Threshold,3.0.4,59.39875322734113,
361,4,0.009875163196588321,1,0,Real,ideal,2019_Mar_17_1114,Face-Threshold,3.0.4,59.39875322734113,
362,4,0.0087592191994606,0,0,Real,ideal,2019_Mar_17_1114,Face-Threshold,3.0.4,59.39875322734113,
363,4,0.010747061417020642,1,0,Real,ideal,2019_Mar_17_1114,Face-Threshold,3.0.4,59.39875322734113,
364,4,0.00953645811977255,1,0,Real,ideal,2019_Mar_17_1114,Face-Threshold,3.0.4,59.39875322734113,
365,4,0.00843081814547042,1,0,Real,ideal,2019_Mar_17_1114,Face-Threshold,3.0.4,59.39875322734113,
366,4,0.007329456435620496,1,0,Real,ideal,2019_Mar_17_1114,Face-Threshold,3.0.4,59.39875322734113,
367,4,0.006228799625596915,1,0,Real,ideal,2019_Mar_17_1114,Face-Threshold,3.0.4,59.39875322734113,
368,4,0.005125291608253979,0,0,Real,ideal,2019_Mar_17_1114,Face-Threshold,3.0.4,59.39875322734113,
369,4,0.007014965331526901,0,0,Real,ideal,2019_Mar_17_1114,Face-Threshold,3.0.4,59.39875322734113,
370,4,0.008875646280295413,1,0,Real,ideal,2019_Mar_17_1114,Face-Threshold,3.0.4,59.39875322734113,
371,4,0.007789232568231663,0,0,Real,ideal,2019_Mar_17_1114,Face-Threshold,3.0.4,59.39875322734113,
372,4,0.009635173973608413,1,0,Real,ideal,2019_Mar_17_1114,Face-Threshold,3.0.4,59.39875322734113,
373,4,0.008553115786792242,0,0,Real,ideal,2019_Mar_17_1114,Face-Threshold,3.0.4,59.39875322734113,
374,4,0.010447356389051643,1,0,Real,ideal,2019_Mar_17_1114,Face-Threshold,3.0.4,59.39875322734113,
375,4,0.00930805580699634,0,0,Real,ideal,2019_Mar_17_1114,Face-Threshold,3.0.4,59.39875322734113,
376,4,0.01129690791232707,1,0,Real,ideal,2019_Mar_17_1114,Face-Threshold,3.0.4,59.39875322734113,
377,4,0.010064280149055083,1,0,Real,ideal,2019_Mar_17_1114,Face-Threshold,3.0.4,59.39875322734113,
378,4,0.008986161425176165,0,0,Real,ideal,2019_Mar_17_1114,Face-Threshold,3.0.4,59.39875322734113,
379,4,0.01091516468006154,1,0,Real,ideal,2019_Mar_17_1114,Face-Threshold,3.0.4,59.39875322734113,
380,4,0.00972880973569773,1,0,Real,ideal,2019_Mar_17_1114,Face-Threshold,3.0.4,59.39875322734113,
381,4,0.008669292314177734,0,0,Real,ideal,2019_Mar_17_1114,Face-Threshold,3.0.4,59.39875322734113,
382,4,0.010536499020710577,1,0,Real,ideal,2019_Mar_17_1114,Face-Threshold,3.0.4,59.39875322734113,
383,4,0.00940745844944052,1,0,Real,ideal,2019_Mar_17_1114,Face-Threshold,3.0.4,59.39875322734113,
384,4,0.008357258225199893,1,0,Real,ideal,2019_Mar_17_1114,Face-Threshold,3.0.4,59.39875322734113,
385,4,0.007310957864433643,1,0,Real,ideal,2019_Mar_17_1114,Face-Threshold,3.0.4,59.39875322734113,
386,4,0.006265327786242392,1,0,Real,ideal,2019_Mar_17_1114,Face-Threshold,3.0.4,59.39875322734113,
387,4,0.005217153202798086,1,0,Real,ideal,2019_Mar_17_1114,Face-Threshold,3.0.4,59.39875322734113,
388,4,0.0041632145956972955,1,0,Real,ideal,2019_Mar_17_1114,Face-Threshold,3.0.4,59.39875322734113,
389,4,0.0031444360249880954,1,0,Real,ideal,2019_Mar_17_1114,Face-Threshold,3.0.4,59.39875322734113,
390,4,0.0021139701938459043,1,0,Real,ideal,2019_Mar_17_1114,Face-Threshold,3.0.4,59.39875322734113,
391,4,0.0010688580312250284,1,0,Real,ideal,2019_Mar_17_1114,Face-Threshold,3.0.4,59.39875322734113,
392,4,6.065653156972495e-06,0,0,Real,ideal,2019_Mar_17_1114,Face-Threshold,3.0.4,59.39875322734113,
393,4,0.0017834537563254371,1,0,Real,ideal,2019_Mar_17_1114,Face-Threshold,3.0.4,59.39875322734113,
394,4,0.0007392885043001618,1,0,Real,ideal,2019_Mar_17_1114,Face-Threshold,3.0.4,59.39875322734113,
395,4,0,0,0,Real,ideal,2019_Mar_17_1114,Face-Threshold,3.0.4,59.39875322734113,
396,4,0.0014551990488146926,0,0,Real,ideal,2019_Mar_17_1114,Face-Threshold,3.0.4,59.39875322734113,
397,4,0.0031668560604366514,0,0,Real,ideal,2019_Mar_17_1114,Face-Threshold,3.0.4,59.39875322734113,
398,4,0.004826426002303319,0,0,Real,ideal,2019_Mar_17_1114,Face-Threshold,3.0.4,59.39875322734113,
399,4,0.006447673692302258,0,0,Real,ideal,2019_Mar_17_1114,Face-Threshold,3.0.4,59.39875322734113,
400,4,0.008176683303294074,1,0,Real,ideal,2019_Mar_17_1114,Face-Threshold,3.0.4,59.39875322734113,
401,4,0.007169498137772068,0,0,Real,ideal,2019_Mar_17_1114,Face-Threshold,3.0.4,59.39875322734113,
402,4,0.00888379844363213,0,0,Real,ideal,2019_Mar_17_1114,Face-Threshold,3.0.4,59.39875322734113,
403,4,0.010681414591511451,1,0,Real,ideal,2019_Mar_17_1114,Face-Threshold,3.0.4,59.39875322734113,
404,4,0.009583891809449907,1,0,Real,ideal,2019_Mar_17_1114,Face-Threshold,3.0.4,59.39875322734113,
405,4,0.00858494585917019,1,0,Real,ideal,2019_Mar_17_1114,Face-Threshold,3.0.4,59.39875322734113,
406,4,0.007590441008489046,0,0,Real,ideal,2019_Mar_17_1114,Face-Threshold,3.0.4,59.39875322734113,
407,4,0.009281033876719358,1,0,Real,ideal,2019_Mar_17_1114,Face-Threshold,3.0.4,59.39875322734113,
408,4,0.008290412757294363,1,0,Real,ideal,2019_Mar_17_1114,Face-Threshold,3.0.4,59.39875322734113,
409,4,0.007303348598619974,1,0,Real,ideal,2019_Mar_17_1114,Face-Threshold,3.0.4,59.39875322734113,
410,4,0.006316962260195291,1,0,Real,ideal,2019_Mar_17_1114,Face-Threshold,3.0.4,59.39875322734113,
411,4,0.0053283872878173155,1,0,Real,ideal,2019_Mar_17_1114,Face-Threshold,3.0.4,59.39875322734113,
412,4,0.004334753464492858,1,0,Real,ideal,2019_Mar_17_1114,Face-Threshold,3.0.4,59.39875322734113,
413,4,0.0033748403645316727,1,0,Real,ideal,2019_Mar_17_1114,Face-Threshold,3.0.4,59.39875322734113,
414,4,0.0024045871990743817,1,0,Real,ideal,2019_Mar_17_1114,Face-Threshold,3.0.4,59.39875322734113,
415,4,0.0014213630550664047,0,0,Real,ideal,2019_Mar_17_1114,Face-Threshold,3.0.4,59.39875322734113,
416,4,0.0030598053902841094,1,0,Real,ideal,2019_Mar_17_1114,Face-Threshold,3.0.4,59.39875322734113,
417,4,0.0020911553884593315,1,0,Real,ideal,2019_Mar_17_1114,Face-Threshold,3.0.4,59.39875322734113,
418,4,0.0011087649332559568,1,0,Real,ideal,2019_Mar_17_1114,Face-Threshold,3.0.4,59.39875322734113,
419,4,0.00010994712848794164,0,0,Real,ideal,2019_Mar_17_1114,Face-Threshold,3.0.4,59.39875322734113,
420,4,0.001779757610055166,1,0,Real,ideal,2019_Mar_17_1114,Face-Threshold,3.0.4,59.39875322734113,
421,4,0.0007979252068326947,1,0,Real,ideal,2019_Mar_17_1114,Face-Threshold,3.0.4,59.39875322734113,
422,4,0,0,0,Real,ideal,2019_Mar_17_1114,Face-Threshold,3.0.4,59.39875322734113,
423,4,0.001470275683952249,1,0,Real,ideal,2019_Mar_17_1114,Face-Threshold,3.0.4,59.39875322734113,
424,4,0.0004887319456218231,0,0,Real,ideal,2019_Mar_17_1114,Face-Threshold,3.0.4,59.39875322734113,
425,4,0.0021281261873665747,1,0,Real,ideal,2019_Mar_17_1114,Face-Threshold,3.0.4,59.39875322734113,
426,4,0.00116259500305127,1,0,Real,ideal,2019_Mar_17_1114,Face-Threshold,3.0.4,59.39875322734113,
427,4,0.00018107647726711695,1,0,Real,ideal,2019_Mar_17_1114,Face-Threshold,3.0.4,59.39875322734113,
428,4,0,0,0,Real,ideal,2019_Mar_17_1114,Face-Threshold,3.0.4,59.39875322734113,
429,4,0.0008566043640594323,1,0,Real,ideal,2019_Mar_17_1114,Face-Threshold,3.0.4,59.39875322734113,
430,4,0,0,0,Real,ideal,2019_Mar_17_1114,Face-Threshold,3.0.4,59.39875322734113,
431,4,0.0015169917485847173,0,0,Real,ideal,2019_Mar_17_1114,Face-Threshold,3.0.4,59.39875322734113,
432,4,0.0030995127236592146,0,0,Real,ideal,2019_Mar_17_1114,Face-Threshold,3.0.4,59.39875322734113,
433,4,0.00463511120965221,1,0,Real,ideal,2019_Mar_17_1114,Face-Threshold,3.0.4,59.39875322734113,
434,4,0.003720337181870814,1,0,Real,ideal,2019_Mar_17_1114,Face-Threshold,3.0.4,59.39875322734113,
435,4,0.0027966282793466246,1,0,Real,ideal,2019_Mar_17_1114,Face-Threshold,3.0.4,59.39875322734113,
436,4,0.0018615935281416918,0,0,Real,ideal,2019_Mar_17_1114,Face-Threshold,3.0.4,59.39875322734113,
437,4,0.003417883407708655,1,0,Real,ideal,2019_Mar_17_1114,Face-Threshold,3.0.4,59.39875322734113,
438,4,0.0024957783895255825,1,0,Real,ideal,2019_Mar_17_1114,Face-Threshold,3.0.4,59.39875322734113,
439,4,0.001561636800181676,1,0,Real,ideal,2019_Mar_17_1114,Face-Threshold,3.0.4,59.39875322734113,
440,4,0.0006130217712809749,1,0,Real,ideal,2019_Mar_17_1114,Face-Threshold,3.0.4,59.39875322734113,
441,4,0,1,0,Real,ideal,2019_Mar_17_1114,Face-Threshold,3.0.4,59.39875322734113,
442,4,0,1,0,Real,ideal,2019_Mar_17_1114,Face-Threshold,3.0.4,59.39875322734113,
443,4,0,0,0,Real,ideal,2019_Mar_17_1114,Face-Threshold,3.0.4,59.39875322734113,
444,4,0,0,0,Real,ideal,2019_Mar_17_1114,Face-Threshold,3.0.4,59.39875322734113,
445,4,0.0009666195111452391,0,0,Real,ideal,2019_Mar_17_1114,Face-Threshold,3.0.4,59.39875322734113,
446,4,0.0025231870060060113,1,0,Real,ideal,2019_Mar_17_1114,Face-Threshold,3.0.4,59.39875322734113,
447,4,0.0016043274192625856,1,0,Real,ideal,2019_Mar_17_1114,Face-Threshold,3.0.4,59.39875322734113,
448,4,0.0006713547886934013,1,0,Real,ideal,2019_Mar_17_1114,Face-Threshold,3.0.4,59.39875322734113,
449,4,0,1,0,Real,ideal,2019_Mar_17_1114,Face-Threshold,3.0.4,59.39875322734113,
450,4,0,0,0,Real,ideal,2019_Mar_17_1114,Face-Threshold,3.0.4,59.39875322734113,
451,4,0.0003774546445726723,0,0,Real,ideal,2019_Mar_17_1114,Face-Threshold,3.0.4,59.39875322734113,
452,4,0.001936165852140126,0,0,Real,ideal,2019_Mar_17_1114,Face-Threshold,3.0.4,59.39875322734113,
453,4,0.003441835119028902,1,0,Real,ideal,2019_Mar_17_1114,Face-Threshold,3.0.4,59.39875322734113,
454,4,0.0025492451875729905,0,0,Real,ideal,2019_Mar_17_1114,Face-Threshold,3.0.4,59.39875322734113,
455,4,0.0040321647783261305,1,0,Real,ideal,2019_Mar_17_1114,Face-Threshold,3.0.4,59.39875322734113,
456,4,0.003150676456918522,1,0,Real,ideal,2019_Mar_17_1114,Face-Threshold,3.0.4,59.39875322734113,
457,4,0.002259271265691143,0,0,Real,ideal,2019_Mar_17_1114,Face-Threshold,3.0.4,59.39875322734113,
458,4,0.0037413307711342547,0,0,Real,ideal,2019_Mar_17_1114,Face-Threshold,3.0.4,59.39875322734113,
459,4,0.005184580135786987,0,0,Real,ideal,2019_Mar_17_1114,Face-Threshold,3.0.4,59.39875322734113,
460,4,0.006717135441318689,0,0,Real,ideal,2019_Mar_17_1114,Face-Threshold,3.0.4,59.39875322734113,
461,4,0.008228710536981154,1,0,Real,ideal,2019_Mar_17_1114,Face-Threshold,3.0.4,59.39875322734113,
462,4,0.007346204405109191,1,0,Real,ideal,2019_Mar_17_1114,Face-Threshold,3.0.4,59.39875322734113,
463,4,0.0064645438334874905,0,0,Real,ideal,2019_Mar_17_1114,Face-Threshold,3.0.4,59.39875322734113,
464,4,0.00796807290075624,0,0,Real,ideal,2019_Mar_17_1114,Face-Threshold,3.0.4,59.39875322734113,
465,4,0.00946071831901063,1,0,Real,ideal,2019_Mar_17_1114,Face-Threshold,3.0.4,59.39875322734113,
466,4,0.008583681272657906,1,0,Real,ideal,2019_Mar_17_1114,Face-Threshold,3.0.4,59.39875322734113,
467,4,0.007710696766717706,1,0,Real,ideal,2019_Mar_17_1114,Face-Threshold,3.0.4,59.39875322734113,
468,4,0.006839501415880689,0,0,Real,ideal,2019_Mar_17_1114,Face-Threshold,3.0.4,59.39875322734113,
469,4,0.008323519943532587,0,0,Real,ideal,2019_Mar_17_1114,Face-Threshold,3.0.4,59.39875322734113,
470,4,0.009799699253887184,1,0,Real,ideal,2019_Mar_17_1114,Face-Threshold,3.0.4,59.39875322734113,
471,4,0.008930722589163886,1,0,Real,ideal,2019_Mar_17_1114,Face-Threshold,3.0.4,59.39875322734113,
472,4,0.008066657346765815,0,0,Real,ideal,2019_Mar_17_1114,Face-Threshold,3.0.4,59.39875322734113,
473,4,0.00953317296847589,1,0,Real,ideal,2019_Mar_17_1114,Face-Threshold,3.0.4,59.39875322734113,
474,4,0.008670964870756026,0,0,Real,ideal,2019_Mar_17_1114,Face-Threshold,3.0.4,59.39875322734113,
475,4,0.010154074909263122,1,0,Real,ideal,2019_Mar_17_1114,Face-Threshold,3.0.4,59.39875322734113,
476,4,0.009270258558230104,0,0,Real,ideal,2019_Mar_17_1114,Face-Threshold,3.0.4,59.39875322734113,
477,4,0.010842694221343596,0,0,Real,ideal,2019_Mar_17_1114,Face-Threshold,3.0.4,59.39875322734113,
478,4,0.012484445576824932,0,0,Real,ideal,2019_Mar_17_1114,Face-Threshold,3.0.4,59.39875322734113,
479,4,0.014073270788888814,1,0,Real,ideal,2019_Mar_17_1114,Face-Threshold,3.0.4,59.39875322734113,
480,4,0.01312918628765708,1,0,Real,ideal,2019_Mar_17_1114,Face-Threshold,3.0.4,59.39875322734113,
481,4,0.012174533104502727,0,0,Real,ideal,2019_Mar_17_1114,Face-Threshold,3.0.4,59.39875322734113,
482,4,0.01376192439699081,1,0,Real,ideal,2019_Mar_17_1114,Face-Threshold,3.0.4,59.39875322734113,
483,4,0.012819938978833822,0,0,Real,ideal,2019_Mar_17_1114,Face-Threshold,3.0.4,59.39875322734113,
484,4,0.01438361449799358,0,0,Real,ideal,2019_Mar_17_1114,Face-Threshold,3.0.4,59.39875322734113,
485,4,0.015910012827542952,0,0,Real,ideal,2019_Mar_17_1114,Face-Threshold,3.0.4,59.39875322734113,
486,4,0.017535718035057435,1,0,Real,ideal,2019_Mar_17_1114,Face-Threshold,3.0.4,59.39875322734113,
487,4,0.016590514358069353,1,0,Real,ideal,2019_Mar_17_1114,Face-Threshold,3.0.4,59.39875322734113,
488,4,0.01564422634708945,1,0,Real,ideal,2019_Mar_17_1114,Face-Threshold,3.0.4,59.39875322734113,
489,4,0.014694217275330101,0,0,Real,ideal,2019_Mar_17_1114,Face-Threshold,3.0.4,59.39875322734113,
490,4,0.016197518829007995,1,0,Real,ideal,2019_Mar_17_1114,Face-Threshold,3.0.4,59.39875322734113,
491,4,0.01525563128105567,1,0,Real,ideal,2019_Mar_17_1114,Face-Threshold,3.0.4,59.39875322734113,
492,4,0.01430897121370589,1,0,Real,ideal,2019_Mar_17_1114,Face-Threshold,3.0.4,59.39875322734113,
493,4,0.013394629284437631,1,0,Real,ideal,2019_Mar_17_1114,Face-Threshold,3.0.4,59.39875322734113,
494,4,0.012470732160481723,1,0,Real,ideal,2019_Mar_17_1114,Face-Threshold,3.0.4,59.39875322734113,
495,4,0.011534892849100198,0,0,Real,ideal,2019_Mar_17_1114,Face-Threshold,3.0.4,59.39875322734113,
496,4,0.013093510148122878,0,0,Real,ideal,2019_Mar_17_1114,Face-Threshold,3.0.4,59.39875322734113,
497,4,0.014606681221129125,1,0,Real,ideal,2019_Mar_17_1114,Face-Threshold,3.0.4,59.39875322734113,
498,4,0.013704910766987821,0,0,Real,ideal,2019_Mar_17_1114,Face-Threshold,3.0.4,59.39875322734113,
499,4,0.015198245838694835,1,0,Real,ideal,2019_Mar_17_1114,Face-Threshold,3.0.4,59.39875322734113,
500,4,0.014266894013433395,1,0,Real,ideal,2019_Mar_17_1114,Face-Threshold,3.0.4,59.39875322734113,
501,4,0.013367236305359909,0,0,Real,ideal,2019_Mar_17_1114,Face-Threshold,3.0.4,59.39875322734113,
502,4,0.014858419439261195,0,0,Real,ideal,2019_Mar_17_1114,Face-Threshold,3.0.4,59.39875322734113,
503,4,0.016317946621405788,1,0,Real,ideal,2019_Mar_17_1114,Face-Threshold,3.0.4,59.39875322734113,
504,4,0.015402617435516519,1,0,Real,ideal,2019_Mar_17_1114,Face-Threshold,3.0.4,59.39875322734113,
505,4,0.014483060723404162,1,0,Real,ideal,2019_Mar_17_1114,Face-Threshold,3.0.4,59.39875322734113,
506,4,0.013595391835980353,1,0,Real,ideal,2019_Mar_17_1114,Face-Threshold,3.0.4,59.39875322734113,
507,4,0.012698954785502758,1,0,Real,ideal,2019_Mar_17_1114,Face-Threshold,3.0.4,59.39875322734113,
508,4,0.011791498397574929,1,0,Real,ideal,2019_Mar_17_1114,Face-Threshold,3.0.4,59.39875322734113,
509,4,0.010870722666671606,1,0,Real,ideal,2019_Mar_17_1114,Face-Threshold,3.0.4,59.39875322734113,
510,4,0.009944183942643126,0,0,Real,ideal,2019_Mar_17_1114,Face-Threshold,3.0.4,59.39875322734113,
511,4,0.011500008841793974,1,0,Real,ideal,2019_Mar_17_1114,Face-Threshold,3.0.4,59.39875322734113,
512,4,0.010579275117179265,1,0,Real,ideal,2019_Mar_17_1114,Face-Threshold,3.0.4,59.39875322734113,
513,4,0.009697567010846009,1,0,Real,ideal,2019_Mar_17_1114,Face-Threshold,3.0.4,59.39875322734113,
514,4,0.00890501064361554,0,0,Real,ideal,2019_Mar_17_1114,Face-Threshold,3.0.4,59.39875322734113,
515,4,0.010289123874587192,0,0,Real,ideal,2019_Mar_17_1114,Face-Threshold,3.0.4,59.39875322734113,
516,4,0.011827568703597802,1,0,Real,ideal,2019_Mar_17_1114,Face-Threshold,3.0.4,59.39875322734113,
517,4,0.010921520296504728,0,0,Real,ideal,2019_Mar_17_1114,Face-Threshold,3.0.4,59.39875322734113,
518,4,0.012432768033025121,1,0,Real,ideal,2019_Mar_17_1114,Face-Threshold,3.0.4,59.39875322734113,
519,4,0.011540376703893462,1,0,Real,ideal,2019_Mar_17_1114,Face-Threshold,3.0.4,59.39875322734113,
520,4,0.010634330103285905,0,0,Real,ideal,2019_Mar_17_1114,Face-Threshold,3.0.4,59.39875322734113,
521,4,0.012146632434417881,1,0,Real,ideal,2019_Mar_17_1114,Face-Threshold,3.0.4,59.39875322734113,
522,4,0.011254656786324313,1,0,Real,ideal,2019_Mar_17_1114,Face-Threshold,3.0.4,59.39875322734113,
523,4,0.01034838614173339,1,0,Real,ideal,2019_Mar_17_1114,Face-Threshold,3.0.4,59.39875322734113,
524,4,0.00951656639711812,1,0,Real,ideal,2019_Mar_17_1114,Face-Threshold,3.0.4,59.39875322734113,
525,4,0.008741690615630848,1,0,Real,ideal,2019_Mar_17_1114,Face-Threshold,3.0.4,59.39875322734113,
526,4,0.007970876767360024,1,0,Real,ideal,2019_Mar_17_1114,Face-Threshold,3.0.4,59.39875322734113,
527,4,0.0072023520758702775,1,0,Real,ideal,2019_Mar_17_1114,Face-Threshold,3.0.4,59.39875322734113,
528,4,0.0064343577014209785,1,0,Real,ideal,2019_Mar_17_1114,Face-Threshold,3.0.4,59.39875322734113,
529,4,0.005665140774409216,1,0,Real,ideal,2019_Mar_17_1114,Face-Threshold,3.0.4,59.39875322734113,
530,4,0.0048929465181274945,0,0,Real,ideal,2019_Mar_17_1114,Face-Threshold,3.0.4,59.39875322734113,
531,4,0.006114076795240397,1,0,Real,ideal,2019_Mar_17_1114,Face-Threshold,3.0.4,59.39875322734113,
532,4,0.005347577697414008,0,0,Real,ideal,2019_Mar_17_1114,Face-Threshold,3.0.4,59.39875322734113,
533,4,0.00665883205217932,1,0,Real,ideal,2019_Mar_17_1114,Face-Threshold,3.0.4,59.39875322734113,
534,4,0.005897905047861085,0,0,Real,ideal,2019_Mar_17_1114,Face-Threshold,3.0.4,59.39875322734113,
535,4,0.007197514941321204,0,0,Real,ideal,2019_Mar_17_1114,Face-Threshold,3.0.4,59.39875322734113,
536,4,0.008485126278771349,0,0,Real,ideal,2019_Mar_17_1114,Face-Threshold,3.0.4,59.39875322734113,
537,4,0.0097693310653863,0,0,Real,ideal,2019_Mar_17_1114,Face-Threshold,3.0.4,59.39875322734113,
538,4,0.011225002436883902,1,0,Real,ideal,2019_Mar_17_1114,Face-Threshold,3.0.4,59.39875322734113,
539,4,0.01034440685271204,1,0,Real,ideal,2019_Mar_17_1114,Face-Threshold,3.0.4,59.39875322734113,
540,4,0.009535908797963843,1,0,Real,ideal,2019_Mar_17_1114,Face-Threshold,3.0.4,59.39875322734113,
541,4,0.00878409315298212,0,0,Real,ideal,2019_Mar_17_1114,Face-Threshold,3.0.4,59.39875322734113,
542,4,0.010067386639453169,0,0,Real,ideal,2019_Mar_17_1114,Face-Threshold,3.0.4,59.39875322734113,
543,4,0.011540093233378457,1,0,Real,ideal,2019_Mar_17_1114,Face-Threshold,3.0.4,59.39875322734113,
544,4,0.010673268822206372,1,0,Real,ideal,2019_Mar_17_1114,Face-Threshold,3.0.4,59.39875322734113,
545,4,0.009823807830768194,0,0,Real,ideal,2019_Mar_17_1114,Face-Threshold,3.0.4,59.39875322734113,
546,4,0.011266281188490712,1,0,Real,ideal,2019_Mar_17_1114,Face-Threshold,3.0.4,59.39875322734113,
547,4,0.010399069555993512,1,0,Real,ideal,2019_Mar_17_1114,Face-Threshold,3.0.4,59.39875322734113,
548,4,0.009593333291634032,0,0,Real,ideal,2019_Mar_17_1114,Face-Threshold,3.0.4,59.39875322734113,
549,4,0.01099367482827357,0,0,Real,ideal,2019_Mar_17_1114,Face-Threshold,3.0.4,59.39875322734113,
550,4,0.012417098663506765,1,0,Real,ideal,2019_Mar_17_1114,Face-Threshold,3.0.4,59.39875322734113,
551,4,0.011576012519408041,1,0,Real,ideal,2019_Mar_17_1114,Face-Threshold,3.0.4,59.39875322734113,
552,4,0.010722191847012952,0,0,Real,ideal,2019_Mar_17_1114,Face-Threshold,3.0.4,59.39875322734113,
553,4,0.012146908646911037,1,0,Real,ideal,2019_Mar_17_1114,Face-Threshold,3.0.4,59.39875322734113,
554,4,0.01130598381959974,1,0,Real,ideal,2019_Mar_17_1114,Face-Threshold,3.0.4,59.39875322734113,
555,4,0.010451752010441684,1,0,Real,ideal,2019_Mar_17_1114,Face-Threshold,3.0.4,59.39875322734113,
556,4,0.009648761393733662,1,0,Real,ideal,2019_Mar_17_1114,Face-Threshold,3.0.4,59.39875322734113,
557,4,0.008918292800950578,1,0,Real,ideal,2019_Mar_17_1114,Face-Threshold,3.0.4,59.39875322734113,
558,4,0.008192092306351706,0,0,Real,ideal,2019_Mar_17_1114,Face-Threshold,3.0.4,59.39875322734113,
559,4,0.009423889826104759,0,0,Real,ideal,2019_Mar_17_1114,Face-Threshold,3.0.4,59.39875322734113,
560,4,0.010769331282827754,0,0,Real,ideal,2019_Mar_17_1114,Face-Threshold,3.0.4,59.39875322734113,
561,4,0.01217280863784631,0,0,Real,ideal,2019_Mar_17_1114,Face-Threshold,3.0.4,59.39875322734113,
562,4,0.013531966098994985,0,0,Real,ideal,2019_Mar_17_1114,Face-Threshold,3.0.4,59.39875322734113,
563,4,0.014856100658477756,0,0,Real,ideal,2019_Mar_17_1114,Face-Threshold,3.0.4,59.39875322734113,
564,4,0.0161539335289968,1,0,Real,ideal,2019_Mar_17_1114,Face-Threshold,3.0.4,59.39875322734113,
565,4,0.015339476569838195,0,0,Real,ideal,2019_Mar_17_1114,Face-Threshold,3.0.4,59.39875322734113,
566,4,0.016732648908645564,1,0,Real,ideal,2019_Mar_17_1114,Face-Threshold,3.0.4,59.39875322734113,
567,4,0.015924249719838468,0,0,Real,ideal,2019_Mar_17_1114,Face-Threshold,3.0.4,59.39875322734113,
568,4,0.017304682413347983,0,0,Real,ideal,2019_Mar_17_1114,Face-Threshold,3.0.4,59.39875322734113,
569,4,0.01867248906716179,1,0,Real,ideal,2019_Mar_17_1114,Face-Threshold,3.0.4,59.39875322734113,
570,4,0.017870832869313902,1,0,Real,ideal,2019_Mar_17_1114,Face-Threshold,3.0.4,59.39875322734113,
571,4,0.01707141698842246,1,0,Real,ideal,2019_Mar_17_1114,Face-Threshold,3.0.4,59.39875322734113,
572,4,0.016272340285634235,1,0,Real,ideal,2019_Mar_17_1114,Face-Threshold,3.0.4,59.39875322734113,
573,4,0.015471708016331798,1,0,Real,ideal,2019_Mar_17_1114,Face-Threshold,3.0.4,59.39875322734113,
574,4,0.014667622975347794,0,0,Real,ideal,2019_Mar_17_1114,Face-Threshold,3.0.4,59.39875322734113,
575,4,0.015939906266136616,0,0,Real,ideal,2019_Mar_17_1114,Face-Threshold,3.0.4,59.39875322734113,
576,4,0.017298168762459987,1,0,Real,ideal,2019_Mar_17_1114,Face-Threshold,3.0.4,59.39875322734113,
577,4,0.016507546752464686,0,0,Real,ideal,2019_Mar_17_1114,Face-Threshold,3.0.4,59.39875322734113,
578,4,0.017855274974023394,1,0,Real,ideal,2019_Mar_17_1114,Face-Threshold,3.0.4,59.39875322734113,
579,4,0.017068503520196343,0,0,Real,ideal,2019_Mar_17_1114,Face-Threshold,3.0.4,59.39875322734113,
580,4,0.018407430579580553,1,0,Real,ideal,2019_Mar_17_1114,Face-Threshold,3.0.4,59.39875322734113,
581,4,0.01762354820296297,0,0,Real,ideal,2019_Mar_17_1114,Face-Threshold,3.0.4,59.39875322734113,
582,4,0.01895535326791925,1,0,Real,ideal,2019_Mar_17_1114,Face-Threshold,3.0.4,59.39875322734113,
583,4,0.018173423622000195,0,0,Real,ideal,2019_Mar_17_1114,Face-Threshold,3.0.4,59.39875322734113,
584,4,0.019499737160592834,1,0,Real,ideal,2019_Mar_17_1114,Face-Threshold,3.0.4,59.39875322734113,
585,4,0.01871884629689813,1,0,Real,ideal,2019_Mar_17_1114,Face-Threshold,3.0.4,59.39875322734113,
586,4,0.017942114901818296,1,0,Real,ideal,2019_Mar_17_1114,Face-Threshold,3.0.4,59.39875322734113,
587,4,0.017167741656858637,1,0,Real,ideal,2019_Mar_17_1114,Face-Threshold,3.0.4,59.39875322734113,
588,4,0.016393940268425444,0,0,Real,ideal,2019_Mar_17_1114,Face-Threshold,3.0.4,59.39875322734113,
589,4,0.017713416500438506,1,0,Real,ideal,2019_Mar_17_1114,Face-Threshold,3.0.4,59.39875322734113,
590,4,0.016943495078395543,1,0,Real,ideal,2019_Mar_17_1114,Face-Threshold,3.0.4,59.39875322734113,
591,4,0.016173632750031364,1,0,Real,ideal,2019_Mar_17_1114,Face-Threshold,3.0.4,59.39875322734113,
592,4,0.015402069024202325,0,0,Real,ideal,2019_Mar_17_1114,Face-Threshold,3.0.4,59.39875322734113,
593,4,0.016721579526589647,1,0,Real,ideal,2019_Mar_17_1114,Face-Threshold,3.0.4,59.39875322734113,
594,4,0.01595547291892596,1,0,Real,ideal,2019_Mar_17_1114,Face-Threshold,3.0.4,59.39875322734113,
595,4,0.01518718102704103,0,0,Real,ideal,2019_Mar_17_1114,Face-Threshold,3.0.4,59.39875322734113,
596,4,0.016501918084680434,1,0,Real,ideal,2019_Mar_17_1114,Face-Threshold,3.0.4,59.39875322734113,
597,4,0.015739388826492673,1,0,Real,ideal,2019_Mar_17_1114,Face-Threshold,3.0.4,59.39875322734113,
598,4,0.014974199918521225,0,0,Real,ideal,2019_Mar_17_1114,Face-Threshold,3.0.4,59.39875322734113,
599,4,0.016183736734908805,0,0,Real,ideal,2019_Mar_17_1114,Face-Threshold,3.0.4,59.39875322734113,
600,4,0.017477232846223212,1,0,Real,ideal,2019_Mar_17_1114,Face-Threshold,3.0.4,59.39875322734113,
601,4,0.016723195132855084,0,0,Real,ideal,2019_Mar_17_1114,Face-Threshold,3.0.4,59.39875322734113,
602,4,0.018007686227350217,0,0,Real,ideal,2019_Mar_17_1114,Face-Threshold,3.0.4,59.39875322734113,
603,4,0.019286051723294895,1,0,Real,ideal,2019_Mar_17_1114,Face-Threshold,3.0.4,59.39875322734113,
604,4,0.01853387035380899,1,0,Real,ideal,2019_Mar_17_1114,Face-Threshold,3.0.4,59.39875322734113,
605,4,0.01778531467156047,1,0,Real,ideal,2019_Mar_17_1114,Face-Threshold,3.0.4,59.39875322734113,
606,4,0.01703871050892697,1,0,Real,ideal,2019_Mar_17_1114,Face-Threshold,3.0.4,59.39875322734113,
607,4,0.016292395997252518,0,0,Real,ideal,2019_Mar_17_1114,Face-Threshold,3.0.4,59.39875322734113,
608,4,0.017565346813824656,0,0,Real,ideal,2019_Mar_17_1114,Face-Threshold,3.0.4,59.39875322734113,
609,4,0.018829525302407724,1,0,Real,ideal,2019_Mar_17_1114,Face-Threshold,3.0.4,59.39875322734113,
610,4,0.018087311908984216,1,0,Real,ideal,2019_Mar_17_1114,Face-Threshold,3.0.4,59.39875322734113,
611,4,0.017347705494376642,0,0,Real,ideal,2019_Mar_17_1114,Face-Threshold,3.0.4,59.39875322734113,
612,4,0.018605249397823875,0,0,Real,ideal,2019_Mar_17_1114,Face-Threshold,3.0.4,59.39875322734113,
613,4,0.019860906278189094,1,0,Real,ideal,2019_Mar_17_1114,Face-Threshold,3.0.4,59.39875322734113,
614,4,0.0191197823280706,1,0,Real,ideal,2019_Mar_17_1114,Face-Threshold,3.0.4,59.39875322734113,
615,4,0.018383520235695616,1,0,Real,ideal,2019_Mar_17_1114,Face-Threshold,3.0.4,59.39875322734113,
616,4,0.017650496667747817,1,0,Real,ideal,2019_Mar_17_1114,Face-Threshold,3.0.4,59.39875322734113,
617,4,0.01691910574808686,0,0,Real,ideal,2019_Mar_17_1114,Face-Threshold,3.0.4,59.39875322734113,
618,4,0.01816425752929124,1,0,Real,ideal,2019_Mar_17_1114,Face-Threshold,3.0.4,59.39875322734113,
619,4,0.017435550567633906,1,0,Real,ideal,2019_Mar_17_1114,Face-Threshold,3.0.4,59.39875322734113,
620,4,0.01670800463365052,1,0,Real,ideal,2019_Mar_17_1114,Face-Threshold,3.0.4,59.39875322734113,
621,4,0.015980041732697015,1,0,Real,ideal,2019_Mar_17_1114,Face-Threshold,3.0.4,59.39875322734113,
622,4,0.01525008545413803,1,0,Real,ideal,2019_Mar_17_1114,Face-Threshold,3.0.4,59.39875322734113,
623,4,0.014516554269899173,1,0,Real,ideal,2019_Mar_17_1114,Face-Threshold,3.0.4,59.39875322734113,
624,4,0.013808688583733908,1,0,Real,ideal,2019_Mar_17_1114,Face-Threshold,3.0.4,59.39875322734113,
625,4,0.013094404703380635,1,0,Real,ideal,2019_Mar_17_1114,Face-Threshold,3.0.4,59.39875322734113,
626,4,0.012372258538173975,1,0,Real,ideal,2019_Mar_17_1114,Face-Threshold,3.0.4,59.39875322734113,
627,4,0.011640777264891211,0,0,Real,ideal,2019_Mar_17_1114,Face-Threshold,3.0.4,59.39875322734113,
628,4,0.012858384822755087,1,0,Real,ideal,2019_Mar_17_1114,Face-Threshold,3.0.4,59.39875322734113,
629,4,0.01213638431168379,1,0,Real,ideal,2019_Mar_17_1114,Face-Threshold,3.0.4,59.39875322734113,
630,4,0.011404608755156698,1,0,Real,ideal,2019_Mar_17_1114,Face-Threshold,3.0.4,59.39875322734113,
631,4,0.010661550698966793,1,0,Real,ideal,2019_Mar_17_1114,Face-Threshold,3.0.4,59.39875322734113,
632,4,0.00992089004291452,1,0,Real,ideal,2019_Mar_17_1114,Face-Threshold,3.0.4,59.39875322734113,
633,4,0.009284968127040438,1,0,Real,ideal,2019_Mar_17_1114,Face-Threshold,3.0.4,59.39875322734113,
634,4,0.008653563870717695,0,0,Real,ideal,2019_Mar_17_1114,Face-Threshold,3.0.4,59.39875322734113,
635,4,0.009722899432109133,1,0,Real,ideal,2019_Mar_17_1114,Face-Threshold,3.0.4,59.39875322734113,
636,4,0.009091182580394208,1,0,Real,ideal,2019_Mar_17_1114,Face-Threshold,3.0.4,59.39875322734113,
637,4,0.008463600755825362,1,0,Real,ideal,2019_Mar_17_1114,Face-Threshold,3.0.4,59.39875322734113,
638,4,0.00783896914820631,1,0,Real,ideal,2019_Mar_17_1114,Face-Threshold,3.0.4,59.39875322734113,
639,4,0.0072161153696165825,1,0,Real,ideal,2019_Mar_17_1114,Face-Threshold,3.0.4,59.39875322734113,
640,4,0.006593875099002444,1,0,Real,ideal,2019_Mar_17_1114,Face-Threshold,3.0.4,59.39875322734113,
641,4,0.005971087792064289,0,0,Real,ideal,2019_Mar_17_1114,Face-Threshold,3.0.4,59.39875322734113,
642,4,0.00703431004803029,0,0,Real,ideal,2019_Mar_17_1114,Face-Threshold,3.0.4,59.39875322734113,
643,4,0.008089202361371395,0,0,Real,ideal,2019_Mar_17_1114,Face-Threshold,3.0.4,59.39875322734113,
644,4,0.009141561638598528,1,0,Real,ideal,2019_Mar_17_1114,Face-Threshold,3.0.4,59.39875322734113,
645,4,0.008521594862223536,0,0,Real,ideal,2019_Mar_17_1114,Face-Threshold,3.0.4,59.39875322734113,
646,4,0.00957194434328823,1,0,Real,ideal,2019_Mar_17_1114,Face-Threshold,3.0.4,59.39875322734113,
647,4,0.008951795570542653,0,0,Real,ideal,2019_Mar_17_1114,Face-Threshold,3.0.4,59.39875322734113,
648,4,0.01000132345432625,1,0,Real,ideal,2019_Mar_17_1114,Face-Threshold,3.0.4,59.39875322734113,
649,4,0.009380222521493398,1,0,Real,ideal,2019_Mar_17_1114,Face-Threshold,3.0.4,59.39875322734113,
650,4,0.00876394117163598,1,0,Real,ideal,2019_Mar_17_1114,Face-Threshold,3.0.4,59.39875322734113,
651,4,0.008151122193380878,1,0,Real,ideal,2019_Mar_17_1114,Face-Threshold,3.0.4,59.39875322734113,
652,4,0.007540635558744568,0,0,Real,ideal,2019_Mar_17_1114,Face-Threshold,3.0.4,59.39875322734113,
653,4,0.008577943847488001,1,0,Real,ideal,2019_Mar_17_1114,Face-Threshold,3.0.4,59.39875322734113,
654,4,0.007968503051190345,1,0,Real,ideal,2019_Mar_17_1114,Face-Threshold,3.0.4,59.39875322734113,
655,4,0.007361054349941054,1,0,Real,ideal,2019_Mar_17_1114,Face-Threshold,3.0.4,59.39875322734113,
656,4,0.006754488836126671,1,0,Real,ideal,2019_Mar_17_1114,Face-Threshold,3.0.4,59.39875322734113,
657,4,0.006147702134753186,1,0,Real,ideal,2019_Mar_17_1114,Face-Threshold,3.0.4,59.39875322734113,
658,4,0.005539590454407384,0,0,Real,ideal,2019_Mar_17_1114,Face-Threshold,3.0.4,59.39875322734113,
659,4,0.006579059748709815,0,0,Real,ideal,2019_Mar_17_1114,Face-Threshold,3.0.4,59.39875322734113,
660,4,0.007608249064841643,0,0,Real,ideal,2019_Mar_17_1114,Face-Threshold,3.0.4,59.39875322734113,
661,4,0.008632713328378838,1,0,Real,ideal,2019_Mar_17_1114,Face-Threshold,3.0.4,59.39875322734113,
662,4,0.008030570517303603,0,0,Real,ideal,2019_Mar_17_1114,Face-Threshold,3.0.4,59.39875322734113,
663,4,0.009052177806966932,1,0,Real,ideal,2019_Mar_17_1114,Face-Threshold,3.0.4,59.39875322734113,
664,4,0.008450409826647187,1,0,Real,ideal,2019_Mar_17_1114,Face-Threshold,3.0.4,59.39875322734113,
665,4,0.007851484703850886,1,0,Real,ideal,2019_Mar_17_1114,Face-Threshold,3.0.4,59.39875322734113,
666,4,0.007254322740927299,1,0,Real,ideal,2019_Mar_17_1114,Face-Threshold,3.0.4,59.39875322734113,
667,4,0.006657851742121579,0,0,Real,ideal,2019_Mar_17_1114,Face-Threshold,3.0.4,59.39875322734113,
668,4,0.007674004417899005,0,0,Real,ideal,2019_Mar_17_1114,Face-Threshold,3.0.4,59.39875322734113,
669,4,0.008685965549186436,1,0,Real,ideal,2019_Mar_17_1114,Face-Threshold,3.0.4,59.39875322734113,
670,4,0.008090932704073961,0,0,Real,ideal,2019_Mar_17_1114,Face-Threshold,3.0.4,59.39875322734113,
671,4,0.009100276775404925,0,0,Real,ideal,2019_Mar_17_1114,Face-Threshold,3.0.4,59.39875322734113,
672,4,0.010134491092393783,1,0,Real,ideal,2019_Mar_17_1114,Face-Threshold,3.0.4,59.39875322734113,
673,4,0.009513150665620251,1,0,Real,ideal,2019_Mar_17_1114,Face-Threshold,3.0.4,59.39875322734113,
674,4,0.00891813088360055,0,0,Real,ideal,2019_Mar_17_1114,Face-Threshold,3.0.4,59.39875322734113,
675,4,0.009924963245096896,0,0,Real,ideal,2019_Mar_17_1114,Face-Threshold,3.0.4,59.39875322734113,
676,4,0.011098341887188445,1,0,Real,ideal,2019_Mar_17_1114,Face-Threshold,3.0.4,59.39875322734113,
677,4,0.01039850541399473,1,0,Real,ideal,2019_Mar_17_1114,Face-Threshold,3.0.4,59.39875322734113,
678,4,0.009739023938527491,1,0,Real,ideal,2019_Mar_17_1114,Face-Threshold,3.0.4,59.39875322734113,
679,4,0.00914705325959414,0,0,Real,ideal,2019_Mar_17_1114,Face-Threshold,3.0.4,59.39875322734113,
680,4,0.01017634216604646,1,0,Real,ideal,2019_Mar_17_1114,Face-Threshold,3.0.4,59.39875322734113,
681,4,0.009555011759506404,0,0,Real,ideal,2019_Mar_17_1114,Face-Threshold,3.0.4,59.39875322734113,
682,4,0.01065681699440868,0,0,Real,ideal,2019_Mar_17_1114,Face-Threshold,3.0.4,59.39875322734113,
683,4,0.011808756682153587,0,0,Real,ideal,2019_Mar_17_1114,Face-Threshold,3.0.4,59.39875322734113,
684,4,0.012925072487385114,0,0,Real,ideal,2019_Mar_17_1114,Face-Threshold,3.0.4,59.39875322734113,
685,4,0.014012076527777917,1,0,Real,ideal,2019_Mar_17_1114,Face-Threshold,3.0.4,59.39875322734113,
686,4,0.013363628135853789,1,0,Real,ideal,2019_Mar_17_1114,Face-Threshold,3.0.4,59.39875322734113,
687,4,0.012708581597188462,0,0,Real,ideal,2019_Mar_17_1114,Face-Threshold,3.0.4,59.39875322734113,
688,4,0.013795852359225924,0,0,Real,ideal,2019_Mar_17_1114,Face-Threshold,3.0.4,59.39875322734113,
689,4,0.014858744606654761,0,0,Real,ideal,2019_Mar_17_1114,Face-Threshold,3.0.4,59.39875322734113,
690,4,0.01590288815140578,1,0,Real,ideal,2019_Mar_17_1114,Face-Threshold,3.0.4,59.39875322734113,
691,4,0.015246904432155317,1,0,Real,ideal,2019_Mar_17_1114,Face-Threshold,3.0.4,59.39875322734113,
692,4,0.014587766813545733,0,0,Real,ideal,2019_Mar_17_1114,Face-Threshold,3.0.4,59.39875322734113,
693,4,0.015630743791540835,1,0,Real,ideal,2019_Mar_17_1114,Face-Threshold,3.0.4,59.39875322734113,
694,4,0.014976336716483907,1,0,Real,ideal,2019_Mar_17_1114,Face-Threshold,3.0.4,59.39875322734113,
695,4,0.014345806221112423,0,0,Real,ideal,2019_Mar_17_1114,Face-Threshold,3.0.4,59.39875322734113,
696,4,0.015387756948533227,1,0,Real,ideal,2019_Mar_17_1114,Face-Threshold,3.0.4,59.39875322734113,
697,4,0.014734740920746559,1,0,Real,ideal,2019_Mar_17_1114,Face-Threshold,3.0.4,59.39875322734113,
698,4,0.014105079894350725,0,0,Real,ideal,2019_Mar_17_1114,Face-Threshold,3.0.4,59.39875322734113,
699,4,0.01514627961797771,1,0,Real,ideal,2019_Mar_17_1114,Face-Threshold,3.0.4,59.39875322734113,
700,4,0.014494472556775051,1,0,Real,ideal,2019_Mar_17_1114,Face-Threshold,3.0.4,59.39875322734113,
701,4,0.013865511926208829,0,0,Real,ideal,2019_Mar_17_1114,Face-Threshold,3.0.4,59.39875322734113,
702,4,0.014906231230857991,1,0,Real,ideal,2019_Mar_17_1114,Face-Threshold,3.0.4,59.39875322734113,
703,4,0.014282685668445871,0,0,Real,ideal,2019_Mar_17_1114,Face-Threshold,3.0.4,59.39875322734113,
704,4,0.015313260157073516,0,0,Real,ideal,2019_Mar_17_1114,Face-Threshold,3.0.4,59.39875322734113,
705,4,0.016412629840100446,1,0,Real,ideal,2019_Mar_17_1114,Face-Threshold,3.0.4,59.39875322734113,
706,4,0.015774044658957043,1,0,Real,ideal,2019_Mar_17_1114,Face-Threshold,3.0.4,59.39875322734113,
707,4,0.015133402505829008,0,0,Real,ideal,2019_Mar_17_1114,Face-Threshold,3.0.4,59.39875322734113,
708,4,0.01622970193527662,0,0,Real,ideal,2019_Mar_17_1114,Face-Threshold,3.0.4,59.39875322734113,
709,4,0.017312910836167594,1,0,Real,ideal,2019_Mar_17_1114,Face-Threshold,3.0.4,59.39875322734113,
710,4,0.016680743181509694,0,0,Real,ideal,2019_Mar_17_1114,Face-Threshold,3.0.4,59.39875322734113,
711,4,0.017757569013176322,1,0,Real,ideal,2019_Mar_17_1114,Face-Threshold,3.0.4,59.39875322734113,
712,4,0.01712766260848758,1,0,Real,ideal,2019_Mar_17_1114,Face-Threshold,3.0.4,59.39875322734113,
713,4,0.016498285437199278,0,0,Real,ideal,2019_Mar_17_1114,Face-Threshold,3.0.4,59.39875322734113,
714,4,0.01757093876744731,1,0,Real,ideal,2019_Mar_17_1114,Face-Threshold,3.0.4,59.39875322734113,
715,4,0.01694404514820891,0,0,Real,ideal,2019_Mar_17_1114,Face-Threshold,3.0.4,59.39875322734113,
716,4,0.018011035800349406,1,0,Real,ideal,2019_Mar_17_1114,Face-Threshold,3.0.4,59.39875322734113,
717,4,0.01738601532295847,1,0,Real,ideal,2019_Mar_17_1114,Face-Threshold,3.0.4,59.39875322734113,
718,4,0.01676200921018739,0,0,Real,ideal,2019_Mar_17_1114,Face-Threshold,3.0.4,59.39875322734113,
719,4,0.01782465990162413,1,0,Real,ideal,2019_Mar_17_1114,Face-Threshold,3.0.4,59.39875322734113,
720,4,0.017202747828023113,1,0,Real,ideal,2019_Mar_17_1114,Face-Threshold,3.0.4,59.39875322734113,
721,4,0.016581506867827334,1,0,Real,ideal,2019_Mar_17_1114,Face-Threshold,3.0.4,59.39875322734113,
722,4,0.015959779772013183,1,0,Real,ideal,2019_Mar_17_1114,Face-Threshold,3.0.4,59.39875322734113,
723,4,0.015336409339393231,1,0,Real,ideal,2019_Mar_17_1114,Face-Threshold,3.0.4,59.39875322734113,
724,4,0.01471023420297013,1,0,Real,ideal,2019_Mar_17_1114,Face-Threshold,3.0.4,59.39875322734113,
725,4,0.014106434887255104,1,0,Real,ideal,2019_Mar_17_1114,Face-Threshold,3.0.4,59.39875322734113,
726,4,0.013497759905424789,0,0,Real,ideal,2019_Mar_17_1114,Face-Threshold,3.0.4,59.39875322734113,
727,4,0.014505879794470045,1,0,Real,ideal,2019_Mar_17_1114,Face-Threshold,3.0.4,59.39875322734113,
728,4,0.013902768722037384,1,0,Real,ideal,2019_Mar_17_1114,Face-Threshold,3.0.4,59.39875322734113,
729,4,0.013294450633219546,1,0,Real,ideal,2019_Mar_17_1114,Face-Threshold,3.0.4,59.39875322734113,
730,4,0.012679869840451108,1,0,Real,ideal,2019_Mar_17_1114,Face-Threshold,3.0.4,59.39875322734113,
731,4,0.012057950724399913,0,0,Real,ideal,2019_Mar_17_1114,Face-Threshold,3.0.4,59.39875322734113,
732,4,0.013091902567275382,1,0,Real,ideal,2019_Mar_17_1114,Face-Threshold,3.0.4,59.39875322734113,
733,4,0.012477233296452839,0,0,Real,ideal,2019_Mar_17_1114,Face-Threshold,3.0.4,59.39875322734113,
734,4,0.013498026863454027,0,0,Real,ideal,2019_Mar_17_1114,Face-Threshold,3.0.4,59.39875322734113,
735,4,0.01449523772037703,1,0,Real,ideal,2019_Mar_17_1114,Face-Threshold,3.0.4,59.39875322734113,
736,4,0.013898622337378042,1,0,Real,ideal,2019_Mar_17_1114,Face-Threshold,3.0.4,59.39875322734113,
737,4,0.013296856593535744,1,0,Real,ideal,2019_Mar_17_1114,Face-Threshold,3.0.4,59.39875322734113,
738,4,0.012688906867283967,1,0,Real,ideal,2019_Mar_17_1114,Face-Threshold,3.0.4,59.39875322734113,
739,4,0.012073720040203406,1,0,Real,ideal,2019_Mar_17_1114,Face-Threshold,3.0.4,59.39875322734113,
740,4,0.011450219999372901,1,0,Real,ideal,2019_Mar_17_1114,Face-Threshold,3.0.4,59.39875322734113,
741,4,0.010817304040118825,1,0,Real,ideal,2019_Mar_17_1114,Face-Threshold,3.0.4,59.39875322734113,
742,4,0.010173839151547015,1,0,Real,ideal,2019_Mar_17_1114,Face-Threshold,3.0.4,59.39875322734113,
743,4,0.009603488390792836,1,0,Real,ideal,2019_Mar_17_1114,Face-Threshold,3.0.4,59.39875322734113,
744,4,0.009066246100871977,1,0,Real,ideal,2019_Mar_17_1114,Face-Threshold,3.0.4,59.39875322734113,
745,4,0.008532612494678682,1,0,Real,ideal,2019_Mar_17_1114,Face-Threshold,3.0.4,59.39875322734113,
746,4,0.008001725343517951,0,0,Real,ideal,2019_Mar_17_1114,Face-Threshold,3.0.4,59.39875322734113,
747,4,0.008902352877452335,0,0,Real,ideal,2019_Mar_17_1114,Face-Threshold,3.0.4,59.39875322734113,
748,4,0.009806016465123413,1,0,Real,ideal,2019_Mar_17_1114,Face-Threshold,3.0.4,59.39875322734113,
749,4,0.009271015255732484,1,0,Real,ideal,2019_Mar_17_1114,Face-Threshold,3.0.4,59.39875322734113,
750,4,0.008739933107627329,1,0,Real,ideal,2019_Mar_17_1114,Face-Threshold,3.0.4,59.39875322734113,
751,4,0.008211915580936036,0,0,Real,ideal,2019_Mar_17_1114,Face-Threshold,3.0.4,59.39875322734113,
752,4,0.009107100973465232,1,0,Real,ideal,2019_Mar_17_1114,Face-Threshold,3.0.4,59.39875322734113,
753,4,0.008578947681863458,1,0,Real,ideal,2019_Mar_17_1114,Face-Threshold,3.0.4,59.39875322734113,
754,4,0.008053594017072674,0,0,Real,ideal,2019_Mar_17_1114,Face-Threshold,3.0.4,59.39875322734113,
755,4,0.008944680765334168,1,0,Real,ideal,2019_Mar_17_1114,Face-Threshold,3.0.4,59.39875322734113,
756,4,0.00841935844829661,1,0,Real,ideal,2019_Mar_17_1114,Face-Threshold,3.0.4,59.39875322734113,
757,4,0.007896575249706328,1,0,Real,ideal,2019_Mar_17_1114,Face-Threshold,3.0.4,59.39875322734113,
758,4,0.007375503723727139,0,0,Real,ideal,2019_Mar_17_1114,Face-Threshold,3.0.4,59.39875322734113,
759,4,0.008261128182009136,0,0,Real,ideal,2019_Mar_17_1114,Face-Threshold,3.0.4,59.39875322734113,
760,4,0.009146961777746487,0,0,Real,ideal,2019_Mar_17_1114,Face-Threshold,3.0.4,59.39875322734113,
761,4,0.010044525474661614,1,0,Real,ideal,2019_Mar_17_1114,Face-Threshold,3.0.4,59.39875322734113,
762,4,0.009509389404972868,0,0,Real,ideal,2019_Mar_17_1114,Face-Threshold,3.0.4,59.39875322734113,
763,4,0.010476989392002645,0,0,Real,ideal,2019_Mar_17_1114,Face-Threshold,3.0.4,59.39875322734113,
764,4,0.011514360136448354,1,0,Real,ideal,2019_Mar_17_1114,Face-Threshold,3.0.4,59.39875322734113,
765,4,0.010901556038097504,0,0,Real,ideal,2019_Mar_17_1114,Face-Threshold,3.0.4,59.39875322734113,
766,4,0.0119232201786863,1,0,Real,ideal,2019_Mar_17_1114,Face-Threshold,3.0.4,59.39875322734113,
767,4,0.011318655240426967,1,0,Real,ideal,2019_Mar_17_1114,Face-Threshold,3.0.4,59.39875322734113,
768,4,0.01070478853247947,1,0,Real,ideal,2019_Mar_17_1114,Face-Threshold,3.0.4,59.39875322734113,
769,4,0.010080553132318704,0,0,Real,ideal,2019_Mar_17_1114,Face-Threshold,3.0.4,59.39875322734113,
770,4,0.01112327542969388,0,0,Real,ideal,2019_Mar_17_1114,Face-Threshold,3.0.4,59.39875322734113,
771,4,0.012132087391148072,1,0,Real,ideal,2019_Mar_17_1114,Face-Threshold,3.0.4,59.39875322734113,
772,4,0.011534567918584704,0,0,Real,ideal,2019_Mar_17_1114,Face-Threshold,3.0.4,59.39875322734113,
773,4,0.012529199628153742,1,0,Real,ideal,2019_Mar_17_1114,Face-Threshold,3.0.4,59.39875322734113,
774,4,0.01193906639314335,0,0,Real,ideal,2019_Mar_17_1114,Face-Threshold,3.0.4,59.39875322734113,
775,4,0.012920404785864259,1,0,Real,ideal,2019_Mar_17_1114,Face-Threshold,3.0.4,59.39875322734113,
776,4,0.01233715607254171,1,0,Real,ideal,2019_Mar_17_1114,Face-Threshold,3.0.4,59.39875322734113,
777,4,0.01174645783413969,1,0,Real,ideal,2019_Mar_17_1114,Face-Threshold,3.0.4,59.39875322734113,
778,4,0.011147316799303475,0,0,Real,ideal,2019_Mar_17_1114,Face-Threshold,3.0.4,59.39875322734113,
779,4,0.012145587034459615,0,0,Real,ideal,2019_Mar_17_1114,Face-Threshold,3.0.4,59.39875322734113,
780,4,0.013115579266299637,1,0,Real,ideal,2019_Mar_17_1114,Face-Threshold,3.0.4,59.39875322734113,
781,4,0.012538547411759027,0,0,Real,ideal,2019_Mar_17_1114,Face-Threshold,3.0.4,59.39875322734113,
782,4,0.013496615006158452,1,0,Real,ideal,2019_Mar_17_1114,Face-Threshold,3.0.4,59.39875322734113,
783,4,0.012925699117310396,1,0,Real,ideal,2019_Mar_17_1114,Face-Threshold,3.0.4,59.39875322734113,
784,4,0.012348384576523819,1,0,Real,ideal,2019_Mar_17_1114,Face-Threshold,3.0.4,59.39875322734113,
785,4,0.011763719985069032,1,0,Real,ideal,2019_Mar_17_1114,Face-Threshold,3.0.4,59.39875322734113,
786,4,0.011170731702405678,1,0,Real,ideal,2019_Mar_17_1114,Face-Threshold,3.0.4,59.39875322734113,
787,4,0.010568420756259855,1,0,Real,ideal,2019_Mar_17_1114,Face-Threshold,3.0.4,59.39875322734113,
788,4,0.009963348226283864,1,0,Real,ideal,2019_Mar_17_1114,Face-Threshold,3.0.4,59.39875322734113,
789,4,0.009453994251711506,0,0,Real,ideal,2019_Mar_17_1114,Face-Threshold,3.0.4,59.39875322734113,
790,4,0.010375840340789144,1,0,Real,ideal,2019_Mar_17_1114,Face-Threshold,3.0.4,59.39875322734113,
791,4,0.009803425897427664,1,0,Real,ideal,2019_Mar_17_1114,Face-Threshold,3.0.4,59.39875322734113,
792,4,0.00929712211849315,1,0,Real,ideal,2019_Mar_17_1114,Face-Threshold,3.0.4,59.39875322734113,
793,4,0.008794610488324583,1,0,Real,ideal,2019_Mar_17_1114,Face-Threshold,3.0.4,59.39875322734113,
794,4,0.008295124149580668,1,0,Real,ideal,2019_Mar_17_1114,Face-Threshold,3.0.4,59.39875322734113,
795,4,0.007797905742360944,0,0,Real,ideal,2019_Mar_17_1114,Face-Threshold,3.0.4,59.39875322734113,
796,4,0.008641851030723624,0,0,Real,ideal,2019_Mar_17_1114,Face-Threshold,3.0.4,59.39875322734113,
797,4,0.009488035998444166,1,0,Real,ideal,2019_Mar_17_1114,Face-Threshold,3.0.4,59.39875322734113,
798,4,0.008987552688426603,1,0,Real,ideal,2019_Mar_17_1114,Face-Threshold,3.0.4,59.39875322734113,
799,4,0.00849037152606047,1,0,Real,ideal,2019_Mar_17_1114,Face-Threshold,3.0.4,59.39875322734113,
800,4,0.007995741770730258,0,0,Real,ideal,2019_Mar_17_1114,Face-Threshold,3.0.4,59.39875322734113,
801,4,0.008834784580890265,1,0,Real,ideal,2019_Mar_17_1114,Face-Threshold,3.0.4,59.39875322734113,
802,4,0.008340138809562248,1,0,Real,ideal,2019_Mar_17_1114,Face-Threshold,3.0.4,59.39875322734113,
803,4,0.007847813215271227,1,0,Real,ideal,2019_Mar_17_1114,Face-Threshold,3.0.4,59.39875322734113,
804,4,0.007357071958596084,1,0,Real,ideal,2019_Mar_17_1114,Face-Threshold,3.0.4,59.39875322734113,
805,4,0.006867184325746956,1,0,Real,ideal,2019_Mar_17_1114,Face-Threshold,3.0.4,59.39875322734113,
806,4,0.006377422593857152,1,0,Real,ideal,2019_Mar_17_1114,Face-Threshold,3.0.4,59.39875322734113,
807,4,0.005887059916924731,1,0,Real,ideal,2019_Mar_17_1114,Face-Threshold,3.0.4,59.39875322734113,
808,4,0.005395368223122365,1,0,Real,ideal,2019_Mar_17_1114,Face-Threshold,3.0.4,59.39875322734113,
809,4,0.0049016161143130565,1,0,Real,ideal,2019_Mar_17_1114,Face-Threshold,3.0.4,59.39875322734113,
810,4,0.004425870937145859,1,0,Real,ideal,2019_Mar_17_1114,Face-Threshold,3.0.4,59.39875322734113,
811,4,0.003946785894539784,0,0,Real,ideal,2019_Mar_17_1114,Face-Threshold,3.0.4,59.39875322734113,
812,4,0.0047391805238379825,0,0,Real,ideal,2019_Mar_17_1114,Face-Threshold,3.0.4,59.39875322734113,
813,4,0.0055189854609644096,1,0,Real,ideal,2019_Mar_17_1114,Face-Threshold,3.0.4,59.39875322734113,
814,4,0.00502880238871084,1,0,Real,ideal,2019_Mar_17_1114,Face-Threshold,3.0.4,59.39875322734113,
815,4,0.004536031269651797,1,0,Real,ideal,2019_Mar_17_1114,Face-Threshold,3.0.4,59.39875322734113,
816,4,0.004060690320027482,0,0,Real,ideal,2019_Mar_17_1114,Face-Threshold,3.0.4,59.39875322734113,
817,4,0.004846639839851952,1,0,Real,ideal,2019_Mar_17_1114,Face-Threshold,3.0.4,59.39875322734113,
818,4,0.004374834061659172,0,0,Real,ideal,2019_Mar_17_1114,Face-Threshold,3.0.4,59.39875322734113,
819,4,0.005154255601822144,1,0,Real,ideal,2019_Mar_17_1114,Face-Threshold,3.0.4,59.39875322734113,
820,4,0.004665166976497992,0,0,Real,ideal,2019_Mar_17_1114,Face-Threshold,3.0.4,59.39875322734113,
821,4,0.0054387068801085015,1,0,Real,ideal,2019_Mar_17_1114,Face-Threshold,3.0.4,59.39875322734113,
822,4,0.004952618183899804,1,0,Real,ideal,2019_Mar_17_1114,Face-Threshold,3.0.4,59.39875322734113,
823,4,0.004484341840666817,1,0,Real,ideal,2019_Mar_17_1114,Face-Threshold,3.0.4,59.39875322734113,
824,4,0.0040128641116480845,0,0,Real,ideal,2019_Mar_17_1114,Face-Threshold,3.0.4,59.39875322734113,
825,4,0.0047925202887939,1,0,Real,ideal,2019_Mar_17_1114,Face-Threshold,3.0.4,59.39875322734113,
826,4,0.004324577726295187,0,0,Real,ideal,2019_Mar_17_1114,Face-Threshold,3.0.4,59.39875322734113,
827,4,0.005097716902136229,0,0,Real,ideal,2019_Mar_17_1114,Face-Threshold,3.0.4,59.39875322734113,
828,4,0.0059235244464938,0,0,Real,ideal,2019_Mar_17_1114,Face-Threshold,3.0.4,59.39875322734113,
829,4,0.006740195761346823,0,0,Real,ideal,2019_Mar_17_1114,Face-Threshold,3.0.4,59.39875322734113,
830,4,0.007551283709282208,0,0,Real,ideal,2019_Mar_17_1114,Face-Threshold,3.0.4,59.39875322734113,
831,4,0.008360253046756472,0,0,Real,ideal,2019_Mar_17_1114,Face-Threshold,3.0.4,59.39875322734113,
832,4,0.009170510132290755,1,0,Real,ideal,2019_Mar_17_1114,Face-Threshold,3.0.4,59.39875322734113,
833,4,0.008691857039878459,1,0,Real,ideal,2019_Mar_17_1114,Face-Threshold,3.0.4,59.39875322734113,
834,4,0.008215977300224553,1,0,Real,ideal,2019_Mar_17_1114,Face-Threshold,3.0.4,59.39875322734113,
835,4,0.007742181946556903,1,0,Real,ideal,2019_Mar_17_1114,Face-Threshold,3.0.4,59.39875322734113,
836,4,0.007269788300610036,1,0,Real,ideal,2019_Mar_17_1114,Face-Threshold,3.0.4,59.39875322734113,
837,4,0.006798118039663126,1,0,Real,ideal,2019_Mar_17_1114,Face-Threshold,3.0.4,59.39875322734113,
838,4,0.00632649528849033,0,0,Real,ideal,2019_Mar_17_1114,Face-Threshold,3.0.4,59.39875322734113,
839,4,0.007130516164668532,0,0,Real,ideal,2019_Mar_17_1114,Face-Threshold,3.0.4,59.39875322734113,
840,4,0.00793075593690179,0,0,Real,ideal,2019_Mar_17_1114,Face-Threshold,3.0.4,59.39875322734113,
841,4,0.008730569660015453,1,0,Real,ideal,2019_Mar_17_1114,Face-Threshold,3.0.4,59.39875322734113,
842,4,0.008259094984273796,0,0,Real,ideal,2019_Mar_17_1114,Face-Threshold,3.0.4,59.39875322734113,
843,4,0.009058163340879388,1,0,Real,ideal,2019_Mar_17_1114,Face-Threshold,3.0.4,59.39875322734113,
844,4,0.008586331286709659,0,0,Real,ideal,2019_Mar_17_1114,Face-Threshold,3.0.4,59.39875322734113,
845,4,0.009385219353193253,1,0,Real,ideal,2019_Mar_17_1114,Face-Threshold,3.0.4,59.39875322734113,
846,4,0.008912704419721196,0,0,Real,ideal,2019_Mar_17_1114,Face-Threshold,3.0.4,59.39875322734113,
847,4,0.009711970092440791,1,0,Real,ideal,2019_Mar_17_1114,Face-Threshold,3.0.4,59.39875322734113,
848,4,0.009238449842337626,1,0,Real,ideal,2019_Mar_17_1114,Face-Threshold,3.0.4,59.39875322734113,
849,4,0.00876844653611153,1,0,Real,ideal,2019_Mar_17_1114,Face-Threshold,3.0.4,59.39875322734113,
850,4,0.008301287297487026,0,0,Real,ideal,2019_Mar_17_1114,Face-Threshold,3.0.4,59.39875322734113,
851,4,0.009092929453293597,1,0,Real,ideal,2019_Mar_17_1114,Face-Threshold,3.0.4,59.39875322734113,
852,4,0.008625359701950386,0,0,Real,ideal,2019_Mar_17_1114,Face-Threshold,3.0.4,59.39875322734113,
853,4,0.009416926745247856,0,0,Real,ideal,2019_Mar_17_1114,Face-Threshold,3.0.4,59.39875322734113,
854,4,0.010257938990383797,1,0,Real,ideal,2019_Mar_17_1114,Face-Threshold,3.0.4,59.39875322734113,
855,4,0.009740666061758552,1,0,Real,ideal,2019_Mar_17_1114,Face-Threshold,3.0.4,59.39875322734113,
856,4,0.009271320701449759,0,0,Real,ideal,2019_Mar_17_1114,Face-Threshold,3.0.4,59.39875322734113,
857,4,0.010077865438239075,1,0,Real,ideal,2019_Mar_17_1114,Face-Threshold,3.0.4,59.39875322734113,
858,4,0.009593666827359681,1,0,Real,ideal,2019_Mar_17_1114,Face-Threshold,3.0.4,59.39875322734113,
859,4,0.00912695009617559,0,0,Real,ideal,2019_Mar_17_1114,Face-Threshold,3.0.4,59.39875322734113,
860,4,0.009915889473361694,0,0,Real,ideal,2019_Mar_17_1114,Face-Threshold,3.0.4,59.39875322734113,
861,4,0.010845948528727445,1,0,Real,ideal,2019_Mar_17_1114,Face-Threshold,3.0.4,59.39875322734113,
862,4,0.010286770507425935,0,0,Real,ideal,2019_Mar_17_1114,Face-Threshold,3.0.4,59.39875322734113,
863,4,0.01122022048625776,1,0,Real,ideal,2019_Mar_17_1114,Face-Threshold,3.0.4,59.39875322734113,
864,4,0.010668887747461497,1,0,Real,ideal,2019_Mar_17_1114,Face-Threshold,3.0.4,59.39875322734113,
865,4,0.01010828539603792,1,0,Real,ideal,2019_Mar_17_1114,Face-Threshold,3.0.4,59.39875322734113,
866,4,0.009622892356139223,1,0,Real,ideal,2019_Mar_17_1114,Face-Threshold,3.0.4,59.39875322734113,
867,4,0.00916024786603814,1,0,Real,ideal,2019_Mar_17_1114,Face-Threshold,3.0.4,59.39875322734113,
868,4,0.008700950756904802,1,0,Real,ideal,2019_Mar_17_1114,Face-Threshold,3.0.4,59.39875322734113,
869,4,0.008244357798066426,0,0,Real,ideal,2019_Mar_17_1114,Face-Threshold,3.0.4,59.39875322734113,
870,4,0.009018199301332519,1,0,Real,ideal,2019_Mar_17_1114,Face-Threshold,3.0.4,59.39875322734113,
871,4,0.008561225074861678,0,0,Real,ideal,2019_Mar_17_1114,Face-Threshold,3.0.4,59.39875322734113,
872,4,0.00933497481239548,1,0,Real,ideal,2019_Mar_17_1114,Face-Threshold,3.0.4,59.39875322734113,
873,4,0.008877313740298376,1,0,Real,ideal,2019_Mar_17_1114,Face-Threshold,3.0.4,59.39875322734113,
874,4,0.008422589671620906,1,0,Real,ideal,2019_Mar_17_1114,Face-Threshold,3.0.4,59.39875322734113,
875,4,0.007970171987451924,1,0,Real,ideal,2019_Mar_17_1114,Face-Threshold,3.0.4,59.39875322734113,
876,4,0.007519436594675688,1,0,Real,ideal,2019_Mar_17_1114,Face-Threshold,3.0.4,59.39875322734113,
877,4,0.007069764233912312,1,0,Real,ideal,2019_Mar_17_1114,Face-Threshold,3.0.4,59.39875322734113,
878,4,0.006620538812312227,1,0,Real,ideal,2019_Mar_17_1114,Face-Threshold,3.0.4,59.39875322734113,
879,4,0.006171145754391094,1,0,Real,ideal,2019_Mar_17_1114,Face-Threshold,3.0.4,59.39875322734113,
880,4,0.005720970364225086,1,0,Real,ideal,2019_Mar_17_1114,Face-Threshold,3.0.4,59.39875322734113,
881,4,0.0052693961924241695,0,0,Real,ideal,2019_Mar_17_1114,Face-Threshold,3.0.4,59.39875322734113,
882,4,0.00604165165145415,1,0,Real,ideal,2019_Mar_17_1114,Face-Threshold,3.0.4,59.39875322734113,
883,4,0.005592559478965475,1,0,Real,ideal,2019_Mar_17_1114,Face-Threshold,3.0.4,59.39875322734113,
884,4,0.005141899064726341,0,0,Real,ideal,2019_Mar_17_1114,Face-Threshold,3.0.4,59.39875322734113,
885,4,0.005912883033239225,1,0,Real,ideal,2019_Mar_17_1114,Face-Threshold,3.0.4,59.39875322734113,
886,4,0.005464818325809695,1,0,Real,ideal,2019_Mar_17_1114,Face-Threshold,3.0.4,59.39875322734113,
887,4,0.005015017687210965,1,0,Real,ideal,2019_Mar_17_1114,Face-Threshold,3.0.4,59.39875322734113,
888,4,0.004562866184136871,1,0,Real,ideal,2019_Mar_17_1114,Face-Threshold,3.0.4,59.39875322734113,
889,4,0.004126791270354868,1,0,Real,ideal,2019_Mar_17_1114,Face-Threshold,3.0.4,59.39875322734113,
890,4,0.0036873371511372266,1,0,Real,ideal,2019_Mar_17_1114,Face-Threshold,3.0.4,59.39875322734113,
891,4,0.003243941913006365,1,0,Real,ideal,2019_Mar_17_1114,Face-Threshold,3.0.4,59.39875322734113,
892,4,0.002796034099950384,1,0,Real,ideal,2019_Mar_17_1114,Face-Threshold,3.0.4,59.39875322734113,
893,4,0.0023430313055083363,0,0,Real,ideal,2019_Mar_17_1114,Face-Threshold,3.0.4,59.39875322734113,
894,4,0.0030954086665931357,0,0,Real,ideal,2019_Mar_17_1114,Face-Threshold,3.0.4,59.39875322734113,
895,4,0.003830840201480834,1,0,Real,ideal,2019_Mar_17_1114,Face-Threshold,3.0.4,59.39875322734113,
896,4,0.00339113081400938,0,0,Real,ideal,2019_Mar_17_1114,Face-Threshold,3.0.4,59.39875322734113,
897,4,0.00411941866478871,1,0,Real,ideal,2019_Mar_17_1114,Face-Threshold,3.0.4,59.39875322734113,
898,4,0.003683399854873759,1,0,Real,ideal,2019_Mar_17_1114,Face-Threshold,3.0.4,59.39875322734113,
899,4,0.0032434702410482075,1,0,Real,ideal,2019_Mar_17_1114,Face-Threshold,3.0.4,59.39875322734113,
900,4,0.0027990669912167365,0,0,Real,ideal,2019_Mar_17_1114,Face-Threshold,3.0.4,59.39875322734113,
901,4,0.0035362848893367715,0,0,Real,ideal,2019_Mar_17_1114,Face-Threshold,3.0.4,59.39875322734113,
902,4,0.004258347255465866,1,0,Real,ideal,2019_Mar_17_1114,Face-Threshold,3.0.4,59.39875322734113,
903,4,0.0038257633534221624,1,0,Real,ideal,2019_Mar_17_1114,Face-Threshold,3.0.4,59.39875322734113,
904,4,0.0033894721547906292,1,0,Real,ideal,2019_Mar_17_1114,Face-Threshold,3.0.4,59.39875322734113,
905,4,0.002948919717496057,0,0,Real,ideal,2019_Mar_17_1114,Face-Threshold,3.0.4,59.39875322734113,
906,4,0.0036794573603213254,1,0,Real,ideal,2019_Mar_17_1114,Face-Threshold,3.0.4,59.39875322734113,
907,4,0.0032429388144312177,1,0,Real,ideal,2019_Mar_17_1114,Face-Threshold,3.0.4,59.39875322734113,
908,4,0.0028019848347239362,0,0,Real,ideal,2019_Mar_17_1114,Face-Threshold,3.0.4,59.39875322734113,
909,4,0.0035334682591317,0,0,Real,ideal,2019_Mar_17_1114,Face-Threshold,3.0.4,59.39875322734113,
910,4,0.004249945711600256,0,0,Real,ideal,2019_Mar_17_1114,Face-Threshold,3.0.4,59.39875322734113,
911,4,0.0049540227405472925,1,0,Real,ideal,2019_Mar_17_1114,Face-Threshold,3.0.4,59.39875322734113,
912,4,0.00453081399048183,0,0,Real,ideal,2019_Mar_17_1114,Face-Threshold,3.0.4,59.39875322734113,
913,4,0.005229557457968548,0,0,Real,ideal,2019_Mar_17_1114,Face-Threshold,3.0.4,59.39875322734113,
914,4,0.005976947437347002,0,0,Real,ideal,2019_Mar_17_1114,Face-Threshold,3.0.4,59.39875322734113,
915,4,0.006716872846272481,1,0,Real,ideal,2019_Mar_17_1114,Face-Threshold,3.0.4,59.39875322734113,
916,4,0.006284935617206444,1,0,Real,ideal,2019_Mar_17_1114,Face-Threshold,3.0.4,59.39875322734113,
917,4,0.005852418807367921,1,0,Real,ideal,2019_Mar_17_1114,Face-Threshold,3.0.4,59.39875322734113,
918,4,0.0054187519410045515,0,0,Real,ideal,2019_Mar_17_1114,Face-Threshold,3.0.4,59.39875322734113,
919,4,0.006160016727826345,0,0,Real,ideal,2019_Mar_17_1114,Face-Threshold,3.0.4,59.39875322734113,
920,4,0.00689461324951629,0,0,Real,ideal,2019_Mar_17_1114,Face-Threshold,3.0.4,59.39875322734113,
921,4,0.007625418146108731,1,0,Real,ideal,2019_Mar_17_1114,Face-Threshold,3.0.4,59.39875322734113,
922,4,0.007196744294855062,1,0,Real,ideal,2019_Mar_17_1114,Face-Threshold,3.0.4,59.39875322734113,
923,4,0.0067686928804957525,1,0,Real,ideal,2019_Mar_17_1114,Face-Threshold,3.0.4,59.39875322734113,
924,4,0.006340704264575836,1,0,Real,ideal,2019_Mar_17_1114,Face-Threshold,3.0.4,59.39875322734113,
925,4,0.005912219215978287,1,0,Real,ideal,2019_Mar_17_1114,Face-Threshold,3.0.4,59.39875322734113,
926,4,0.005482677492070431,0,0,Real,ideal,2019_Mar_17_1114,Face-Threshold,3.0.4,59.39875322734113,
927,4,0.006216742269914033,0,0,Real,ideal,2019_Mar_17_1114,Face-Threshold,3.0.4,59.39875322734113,
928,4,0.006944471053801637,1,0,Real,ideal,2019_Mar_17_1114,Face-Threshold,3.0.4,59.39875322734113,
929,4,0.006519095552420695,1,0,Real,ideal,2019_Mar_17_1114,Face-Threshold,3.0.4,59.39875322734113,
930,4,0.006093461708418513,0,0,Real,ideal,2019_Mar_17_1114,Face-Threshold,3.0.4,59.39875322734113,
931,4,0.006819497783522088,1,0,Real,ideal,2019_Mar_17_1114,Face-Threshold,3.0.4,59.39875322734113,
932,4,0.006395378838146448,1,0,Real,ideal,2019_Mar_17_1114,Face-Threshold,3.0.4,59.39875322734113,
933,4,0.005970843729430908,0,0,Real,ideal,2019_Mar_17_1114,Face-Threshold,3.0.4,59.39875322734113,
934,4,0.006695273044935557,0,0,Real,ideal,2019_Mar_17_1114,Face-Threshold,3.0.4,59.39875322734113,
935,4,0.0074152994728466926,1,0,Real,ideal,2019_Mar_17_1114,Face-Threshold,3.0.4,59.39875322734113,
936,4,0.0069933582158568375,0,0,Real,ideal,2019_Mar_17_1114,Face-Threshold,3.0.4,59.39875322734113,
937,4,0.007711112911184259,1,0,Real,ideal,2019_Mar_17_1114,Face-Threshold,3.0.4,59.39875322734113,
938,4,0.007289843536010643,1,0,Real,ideal,2019_Mar_17_1114,Face-Threshold,3.0.4,59.39875322734113,
939,4,0.006869316281313875,1,0,Real,ideal,2019_Mar_17_1114,Face-Threshold,3.0.4,59.39875322734113,
940,4,0.006448990395864829,1,0,Real,ideal,2019_Mar_17_1114,Face-Threshold,3.0.4,59.39875322734113,
941,4,0.0060283258531047546,1,0,Real,ideal,2019_Mar_17_1114,Face-Threshold,3.0.4,59.39875322734113,
942,4,0.005606782003706123,0,0,Real,ideal,2019_Mar_17_1114,Face-Threshold,3.0.4,59.39875322734113,
943,4,0.006326894038841513,1,0,Real,ideal,2019_Mar_17_1114,Face-Threshold,3.0.4,59.39875322734113,
944,4,0.005907278606369359,1,0,Real,ideal,2019_Mar_17_1114,Face-Threshold,3.0.4,59.39875322734113,
945,4,0.005486632745482889,0,0,Real,ideal,2019_Mar_17_1114,Face-Threshold,3.0.4,59.39875322734113,
946,4,0.006205469299916722,1,0,Real,ideal,2019_Mar_17_1114,Face-Threshold,3.0.4,59.39875322734113,
947,4,0.005786853107424772,0,0,Real,ideal,2019_Mar_17_1114,Face-Threshold,3.0.4,59.39875322734113,
948,4,0.006501568846378425,1,0,Real,ideal,2019_Mar_17_1114,Face-Threshold,3.0.4,59.39875322734113,
949,4,0.0060846978471446045,0,0,Real,ideal,2019_Mar_17_1114,Face-Threshold,3.0.4,59.39875322734113,
950,4,0.006795786977341456,0,0,Real,ideal,2019_Mar_17_1114,Face-Threshold,3.0.4,59.39875322734113,
951,4,0.007503026485435882,1,0,Real,ideal,2019_Mar_17_1114,Face-Threshold,3.0.4,59.39875322734113,
952,4,0.007088328737009597,1,0,Real,ideal,2019_Mar_17_1114,Face-Threshold,3.0.4,59.39875322734113,
953,4,0.006674115588202523,1,0,Real,ideal,2019_Mar_17_1114,Face-Threshold,3.0.4,59.39875322734113,
954,4,0.006259862030722985,0,0,Real,ideal,2019_Mar_17_1114,Face-Threshold,3.0.4,59.39875322734113,
955,4,0.006966103718813121,0,0,Real,ideal,2019_Mar_17_1114,Face-Threshold,3.0.4,59.39875322734113,
956,4,0.0076691818424127756,1,0,Real,ideal,2019_Mar_17_1114,Face-Threshold,3.0.4,59.39875322734113,
957,4,0.007256547160360338,0,0,Real,ideal,2019_Mar_17_1114,Face-Threshold,3.0.4,59.39875322734113,
958,4,0.007957882734222488,0,0,Real,ideal,2019_Mar_17_1114,Face-Threshold,3.0.4,59.39875322734113,
959,4,0.008659734151429399,1,0,Real,ideal,2019_Mar_17_1114,Face-Threshold,3.0.4,59.39875322734113,
960,4,0.008245686941864672,1,0,Real,ideal,2019_Mar_17_1114,Face-Threshold,3.0.4,59.39875322734113,
961,4,0.007833582654120486,1,0,Real,ideal,2019_Mar_17_1114,Face-Threshold,3.0.4,59.39875322734113,
962,4,0.007422900911688846,0,0,Real,ideal,2019_Mar_17_1114,Face-Threshold,3.0.4,59.39875322734113,
963,4,0.008120556797422795,1,0,Real,ideal,2019_Mar_17_1114,Face-Threshold,3.0.4,59.39875322734113,
964,4,0.007710114307576399,1,0,Real,ideal,2019_Mar_17_1114,Face-Threshold,3.0.4,59.39875322734113,
965,4,0.007300937031304688,0,0,Real,ideal,2019_Mar_17_1114,Face-Threshold,3.0.4,59.39875322734113,
966,4,0.007996293039704228,0,0,Real,ideal,2019_Mar_17_1114,Face-Threshold,3.0.4,59.39875322734113,
967,4,0.008692348357206447,1,0,Real,ideal,2019_Mar_17_1114,Face-Threshold,3.0.4,59.39875322734113,
968,4,0.008281622936881172,0,0,Real,ideal,2019_Mar_17_1114,Face-Threshold,3.0.4,59.39875322734113,
969,4,0.00897752920779954,1,0,Real,ideal,2019_Mar_17_1114,Face-Threshold,3.0.4,59.39875322734113,
970,4,0.008566286783556198,0,0,Real,ideal,2019_Mar_17_1114,Face-Threshold,3.0.4,59.39875322734113,
971,4,0.009262471467413103,0,0,Real,ideal,2019_Mar_17_1114,Face-Threshold,3.0.4,59.39875322734113,
972,4,0.009963925662537287,1,0,Real,ideal,2019_Mar_17_1114,Face-Threshold,3.0.4,59.39875322734113,
973,4,0.00954735083352376,1,0,Real,ideal,2019_Mar_17_1114,Face-Threshold,3.0.4,59.39875322734113,
974,4,0.009134333807513384,1,0,Real,ideal,2019_Mar_17_1114,Face-Threshold,3.0.4,59.39875322734113,
975,4,0.008724351539365627,0,0,Real,ideal,2019_Mar_17_1114,Face-Threshold,3.0.4,59.39875322734113,
976,4,0.009418069650505123,1,0,Real,ideal,2019_Mar_17_1114,Face-Threshold,3.0.4,59.39875322734113,
977,4,0.009007184509338906,1,0,Real,ideal,2019_Mar_17_1114,Face-Threshold,3.0.4,59.39875322734113,
978,4,0.008599167830593779,1,0,Real,ideal,2019_Mar_17_1114,Face-Threshold,3.0.4,59.39875322734113,
979,4,0.008193508947291761,1,0,Real,ideal,2019_Mar_17_1114,Face-Threshold,3.0.4,59.39875322734113,
980,4,0.007789703045312679,1,0,Real,ideal,2019_Mar_17_1114,Face-Threshold,3.0.4,59.39875322734113,
981,4,0.007387249931011142,0,0,Real,ideal,2019_Mar_17_1114,Face-Threshold,3.0.4,59.39875322734113,
982,4,0.008070981172429215,0,0,Real,ideal,2019_Mar_17_1114,Face-Threshold,3.0.4,59.39875322734113,
983,4,0.008755760053358208,1,0,Real,ideal,2019_Mar_17_1114,Face-Threshold,3.0.4,59.39875322734113,
984,4,0.008351501653891147,0,0,Real,ideal,2019_Mar_17_1114,Face-Threshold,3.0.4,59.39875322734113,
985,4,0.009036288022155892,1,0,Real,ideal,2019_Mar_17_1114,Face-Threshold,3.0.4,59.39875322734113,
986,4,0.008631440573472482,1,0,Real,ideal,2019_Mar_17_1114,Face-Threshold,3.0.4,59.39875322734113,
987,4,0.008228976884716688,1,0,Real,ideal,2019_Mar_17_1114,Face-Threshold,3.0.4,59.39875322734113,
988,4,0.007828399830024091,1,0,Real,ideal,2019_Mar_17_1114,Face-Threshold,3.0.4,59.39875322734113,
989,4,0.007429216939456307,0,0,Real,ideal,2019_Mar_17_1114,Face-Threshold,3.0.4,59.39875322734113,
990,4,0.008107296823958998,0,0,Real,ideal,2019_Mar_17_1114,Face-Threshold,3.0.4,59.39875322734113,
991,4,0.008786589687555857,1,0,Real,ideal,2019_Mar_17_1114,Face-Threshold,3.0.4,59.39875322734113,
992,4,0.008385479625527492,0,0,Real,ideal,2019_Mar_17_1114,Face-Threshold,3.0.4,59.39875322734113,
993,4,0.009064854372237807,0,0,Real,ideal,2019_Mar_17_1114,Face-Threshold,3.0.4,59.39875322734113,
994,4,0.00974881740680772,0,0,Real,ideal,2019_Mar_17_1114,Face-Threshold,3.0.4,59.39875322734113,
995,4,0.010530048455973218,1,0,Real,ideal,2019_Mar_17_1114,Face-Threshold,3.0.4,59.39875322734113,
996,4,0.010034721460532303,1,0,Real,ideal,2019_Mar_17_1114,Face-Threshold,3.0.4,59.39875322734113,
997,4,0.009621143615731242,0,0,Real,ideal,2019_Mar_17_1114,Face-Threshold,3.0.4,59.39875322734113,
998,4,0.010373459996121659,1,0,Real,ideal,2019_Mar_17_1114,Face-Threshold,3.0.4,59.39875322734113,
999,4,0.00989949979706789,0,0,Real,ideal,2019_Mar_17_1114,Face-Threshold,3.0.4,59.39875322734113,
