.thisTrialN,.stepSize,.intensity,.response,key_resp_2.rt,Face,participant,date,expName,psychopyVersion,frameRate,
,,,,,Schematic,joe,2019_Mar_17_1747,Face-Threshold,3.0.4,60.20939345907433,
0,4,0.5,1,1.035112740999466,Schematic,joe,2019_Mar_17_1747,Face-Threshold,3.0.4,60.20939345907433,
1,4,0.4930457594275589,1,0.9054006590013159,Schematic,joe,2019_Mar_17_1747,Face-Threshold,3.0.4,60.20939345907433,
2,4,0.44098222611003013,1,0.7852198939999653,Schematic,joe,2019_Mar_17_1747,Face-Threshold,3.0.4,60.20939345907433,
3,4,0.39044915592878804,1,0.8196564690006198,Schematic,joe,2019_Mar_17_1747,Face-Threshold,3.0.4,60.20939345907433,
4,4,0.3438500374877672,1,0.9188002680002683,Schematic,joe,2019_Mar_17_1747,Face-Threshold,3.0.4,60.20939345907433,
5,4,0.30212246918494096,1,0.8513736429995333,Schematic,joe,2019_Mar_17_1747,Face-Threshold,3.0.4,60.20939345907433,
6,4,0.2644606847687203,1,0.969277783000507,Schematic,joe,2019_Mar_17_1747,Face-Threshold,3.0.4,60.20939345907433,
7,4,0.23025357976650568,1,0.8884183610007312,Schematic,joe,2019_Mar_17_1747,Face-Threshold,3.0.4,60.20939345907433,
8,4,0.19829116269705882,1,1.0389740860009624,Schematic,joe,2019_Mar_17_1747,Face-Threshold,3.0.4,60.20939345907433,
9,4,0.16809608304190554,1,0.8862848740009213,Schematic,joe,2019_Mar_17_1747,Face-Threshold,3.0.4,60.20939345907433,
10,4,0.13936163110536975,1,1.004984589999367,Schematic,joe,2019_Mar_17_1747,Face-Threshold,3.0.4,60.20939345907433,
11,4,0.11193823998741548,1,0.9542916859991237,Schematic,joe,2019_Mar_17_1747,Face-Threshold,3.0.4,60.20939345907433,
12,4,0.08567749210268066,1,0.9216942380007822,Schematic,joe,2019_Mar_17_1747,Face-Threshold,3.0.4,60.20939345907433,
13,4,0.05990130941577476,1,0.971523852998871,Schematic,joe,2019_Mar_17_1747,Face-Threshold,3.0.4,60.20939345907433,
14,4,0.03536510729174469,1,0.9888772439990134,Schematic,joe,2019_Mar_17_1747,Face-Threshold,3.0.4,60.20939345907433,
15,4,0.011320394224367536,1,1.4389805880000495,Schematic,joe,2019_Mar_17_1747,Face-Threshold,3.0.4,60.20939345907433,
16,4,0,0,2.005282594000164,Schematic,joe,2019_Mar_17_1747,Face-Threshold,3.0.4,60.20939345907433,
17,4,0.032361424174876474,1,1.3209588610006904,Schematic,joe,2019_Mar_17_1747,Face-Threshold,3.0.4,60.20939345907433,
18,4,0.012468991731097556,1,1.1044552120001754,Schematic,joe,2019_Mar_17_1747,Face-Threshold,3.0.4,60.20939345907433,
19,4,0,1,1.2883065440000792,Schematic,joe,2019_Mar_17_1747,Face-Threshold,3.0.4,60.20939345907433,
20,4,0,0,1.2054602249991149,Schematic,joe,2019_Mar_17_1747,Face-Threshold,3.0.4,60.20939345907433,
21,4,0.011895027279733295,1,1.4212436000016169,Schematic,joe,2019_Mar_17_1747,Face-Threshold,3.0.4,60.20939345907433,
22,4,0,0,1.1046833229993354,Schematic,joe,2019_Mar_17_1747,Face-Threshold,3.0.4,60.20939345907433,
23,4,0.0248467859248242,0,1.2876637499994104,Schematic,joe,2019_Mar_17_1747,Face-Threshold,3.0.4,60.20939345907433,
24,4,0.053148008594739005,1,1.0562350429991056,Schematic,joe,2019_Mar_17_1747,Face-Threshold,3.0.4,60.20939345907433,
25,4,0.03688992973514199,1,0.9884600610002963,Schematic,joe,2019_Mar_17_1747,Face-Threshold,3.0.4,60.20939345907433,
26,4,0.021578754969297564,0,1.2544529750011861,Schematic,joe,2019_Mar_17_1747,Face-Threshold,3.0.4,60.20939345907433,
27,4,0.04692100724774223,1,1.1547865759985143,Schematic,joe,2019_Mar_17_1747,Face-Threshold,3.0.4,60.20939345907433,
28,4,0.03209182084418971,1,1.0719793420012138,Schematic,joe,2019_Mar_17_1747,Face-Threshold,3.0.4,60.20939345907433,
29,4,0.01872170157123848,0,1.1547588260000339,Schematic,joe,2019_Mar_17_1747,Face-Threshold,3.0.4,60.20939345907433,
30,4,0.04169541143876693,1,1.1884488240011706,Schematic,joe,2019_Mar_17_1747,Face-Threshold,3.0.4,60.20939345907433,
31,4,0.028540823277524774,1,1.1723052750003262,Schematic,joe,2019_Mar_17_1747,Face-Threshold,3.0.4,60.20939345907433,
32,4,0.016356133314579135,1,1.1723052750003262,Schematic,joe,2019_Mar_17_1747,Face-Threshold,3.0.4,60.20939345907433,
33,4,0.005030589532793284,1,1.5901993499992386,Schematic,joe,2019_Mar_17_1747,Face-Threshold,3.0.4,60.20939345907433,
34,4,0,0,2.370956621000005,Schematic,joe,2019_Mar_17_1747,Face-Threshold,3.0.4,60.20939345907433,
35,4,0.012582668094351379,0,1.504731573000754,Schematic,joe,2019_Mar_17_1747,Face-Threshold,3.0.4,60.20939345907433,
36,4,0.030872211093276647,1,1.5388518039999326,Schematic,joe,2019_Mar_17_1747,Face-Threshold,3.0.4,60.20939345907433,
37,4,0.019856636533199856,1,1.0221620489992347,Schematic,joe,2019_Mar_17_1747,Face-Threshold,3.0.4,60.20939345907433,
38,4,0.009696328519509856,1,1.3033727830006683,Schematic,joe,2019_Mar_17_1747,Face-Threshold,3.0.4,60.20939345907433,
39,4,0.00029636738215266245,1,1.7720417689997703,Schematic,joe,2019_Mar_17_1747,Face-Threshold,3.0.4,60.20939345907433,
40,4,0,0,1.4237415209991013,Schematic,joe,2019_Mar_17_1747,Face-Threshold,3.0.4,60.20939345907433,
41,4,0.007268915128980313,1,1.3550172349987406,Schematic,joe,2019_Mar_17_1747,Face-Threshold,3.0.4,60.20939345907433,
42,4,0,0,1.2552419690000534,Schematic,joe,2019_Mar_17_1747,Face-Threshold,3.0.4,60.20939345907433,
43,4,0.013276402869112303,1,1.1056386820000625,Schematic,joe,2019_Mar_17_1747,Face-Threshold,3.0.4,60.20939345907433,
44,4,0.004644235871788638,1,1.0368954289988324,Schematic,joe,2019_Mar_17_1747,Face-Threshold,3.0.4,60.20939345907433,
45,4,0,1,1.605262799999764,Schematic,joe,2019_Mar_17_1747,Face-Threshold,3.0.4,60.20939345907433,
46,4,0,0,1.2210765820000233,Schematic,joe,2019_Mar_17_1747,Face-Threshold,3.0.4,60.20939345907433,
47,4,0.0028139965292571234,1,1.2899051669992332,Schematic,joe,2019_Mar_17_1747,Face-Threshold,3.0.4,60.20939345907433,
48,4,0,1,1.2899051669992332,Schematic,joe,2019_Mar_17_1747,Face-Threshold,3.0.4,60.20939345907433,
49,4,0,1,1.403497621000497,Schematic,joe,2019_Mar_17_1747,Face-Threshold,3.0.4,60.20939345907433,
